"","shape","changeType","blockNum","trialID","response","confidence","rt","subjectID","experimentName","experimentVersion","experimentTime","studyID","sessionID","browserName","browserVersion","displayWindowHeight","displayWindowWidth","displayScreenHeight","displayScreenWidth","change_key","gender","age","taskGuess","purposeGuess","commentText","totalTime","collapsedChange","correctAnswer","fullShapeName","shape_color","video_direction","responded_correctly","count","analysisChangeType"
"1","shape6","no_change1",0,0,"same",8,5088.3,"558980cdfdf99b7ae47f5a75","ducktruck","control",2127077.7,"611a8cbde46ef77ccdf8b0c1","611abc2dcbd349bae6b453c2","Chrome",92,761,1453,1440,2560,"q"," -- select an option -- ",NA,"Looking at two photos of unusual shapes & trying to detect if there was a change between the two objects. ","Determining if people could detect a change in objects when shown similar ones in rapid succession.","Everything went well though I do want to mention there were a couple of times my dog started barking downstairs so I was a bit more distracted than I expected, though I do still feel fairly confident in most of my answers. ",2320196.7,"no_change","same","shape6_no_change1",0.745635528,"rl",1,1,"none"
"2","catch_shape","change1",0,1,"different",9,3265.9,"558980cdfdf99b7ae47f5a75","ducktruck","control",2127077.7,"611a8cbde46ef77ccdf8b0c1","611abc2dcbd349bae6b453c2","Chrome",92,761,1453,1440,2560,"q"," -- select an option -- ",NA,"Looking at two photos of unusual shapes & trying to detect if there was a change between the two objects. ","Determining if people could detect a change in objects when shown similar ones in rapid succession.","Everything went well though I do want to mention there were a couple of times my dog started barking downstairs so I was a bit more distracted than I expected, though I do still feel fairly confident in most of my answers. ",2320196.7,"change1","different","catch_shape_change1",0.285460346,"lr",1,1,"none"
"3","shape4","no_change1",0,2,"same",9,2182.2,"558980cdfdf99b7ae47f5a75","ducktruck","control",2127077.7,"611a8cbde46ef77ccdf8b0c1","611abc2dcbd349bae6b453c2","Chrome",92,761,1453,1440,2560,"q"," -- select an option -- ",NA,"Looking at two photos of unusual shapes & trying to detect if there was a change between the two objects. ","Determining if people could detect a change in objects when shown similar ones in rapid succession.","Everything went well though I do want to mention there were a couple of times my dog started barking downstairs so I was a bit more distracted than I expected, though I do still feel fairly confident in most of my answers. ",2320196.7,"no_change","same","shape4_no_change1",0.088270385,"rl",1,1,"none"
"4","shape5","no_change4",0,3,"same",9,3093.5,"558980cdfdf99b7ae47f5a75","ducktruck","control",2127077.7,"611a8cbde46ef77ccdf8b0c1","611abc2dcbd349bae6b453c2","Chrome",92,761,1453,1440,2560,"q"," -- select an option -- ",NA,"Looking at two photos of unusual shapes & trying to detect if there was a change between the two objects. ","Determining if people could detect a change in objects when shown similar ones in rapid succession.","Everything went well though I do want to mention there were a couple of times my dog started barking downstairs so I was a bit more distracted than I expected, though I do still feel fairly confident in most of my answers. ",2320196.7,"no_change","same","shape5_no_change4",0.613567155,"rl",1,1,"none"
"5","shape1","no_change4",0,4,"same",9,1870.6,"558980cdfdf99b7ae47f5a75","ducktruck","control",2127077.7,"611a8cbde46ef77ccdf8b0c1","611abc2dcbd349bae6b453c2","Chrome",92,761,1453,1440,2560,"q"," -- select an option -- ",NA,"Looking at two photos of unusual shapes & trying to detect if there was a change between the two objects. ","Determining if people could detect a change in objects when shown similar ones in rapid succession.","Everything went well though I do want to mention there were a couple of times my dog started barking downstairs so I was a bit more distracted than I expected, though I do still feel fairly confident in most of my answers. ",2320196.7,"no_change","same","shape1_no_change4",0.658603498,"rl",1,1,"none"
"6","shape8","no_change5",0,5,"same",9,1741.4,"558980cdfdf99b7ae47f5a75","ducktruck","control",2127077.7,"611a8cbde46ef77ccdf8b0c1","611abc2dcbd349bae6b453c2","Chrome",92,761,1453,1440,2560,"q"," -- select an option -- ",NA,"Looking at two photos of unusual shapes & trying to detect if there was a change between the two objects. ","Determining if people could detect a change in objects when shown similar ones in rapid succession.","Everything went well though I do want to mention there were a couple of times my dog started barking downstairs so I was a bit more distracted than I expected, though I do still feel fairly confident in most of my answers. ",2320196.7,"no_change","same","shape8_no_change5",0.568193067,"lr",1,1,"none"
"7","shape3","no_change3",0,6,"same",9,2165.9,"558980cdfdf99b7ae47f5a75","ducktruck","control",2127077.7,"611a8cbde46ef77ccdf8b0c1","611abc2dcbd349bae6b453c2","Chrome",92,761,1453,1440,2560,"q"," -- select an option -- ",NA,"Looking at two photos of unusual shapes & trying to detect if there was a change between the two objects. ","Determining if people could detect a change in objects when shown similar ones in rapid succession.","Everything went well though I do want to mention there were a couple of times my dog started barking downstairs so I was a bit more distracted than I expected, though I do still feel fairly confident in most of my answers. ",2320196.7,"no_change","same","shape3_no_change3",0.908211369,"lr",1,1,"none"
"8","shape2","no_change6",0,7,"same",9,2702,"558980cdfdf99b7ae47f5a75","ducktruck","control",2127077.7,"611a8cbde46ef77ccdf8b0c1","611abc2dcbd349bae6b453c2","Chrome",92,761,1453,1440,2560,"q"," -- select an option -- ",NA,"Looking at two photos of unusual shapes & trying to detect if there was a change between the two objects. ","Determining if people could detect a change in objects when shown similar ones in rapid succession.","Everything went well though I do want to mention there were a couple of times my dog started barking downstairs so I was a bit more distracted than I expected, though I do still feel fairly confident in most of my answers. ",2320196.7,"no_change","same","shape2_no_change6",0.968780552,"lr",1,1,"none"
"9","shape7","concave_nofill_area1",0,8,"different",9,3021.6,"558980cdfdf99b7ae47f5a75","ducktruck","control",2127077.7,"611a8cbde46ef77ccdf8b0c1","611abc2dcbd349bae6b453c2","Chrome",92,761,1453,1440,2560,"q"," -- select an option -- ",NA,"Looking at two photos of unusual shapes & trying to detect if there was a change between the two objects. ","Determining if people could detect a change in objects when shown similar ones in rapid succession.","Everything went well though I do want to mention there were a couple of times my dog started barking downstairs so I was a bit more distracted than I expected, though I do still feel fairly confident in most of my answers. ",2320196.7,"concave_nofill_area1","different","shape7_concave_nofill_area1",NA,"",1,1,"concave_nofill"
"10","shape3","convex_area2",1,9,"same",9,1638.3,"558980cdfdf99b7ae47f5a75","ducktruck","control",2127077.7,"611a8cbde46ef77ccdf8b0c1","611abc2dcbd349bae6b453c2","Chrome",92,761,1453,1440,2560,"q"," -- select an option -- ",NA,"Looking at two photos of unusual shapes & trying to detect if there was a change between the two objects. ","Determining if people could detect a change in objects when shown similar ones in rapid succession.","Everything went well though I do want to mention there were a couple of times my dog started barking downstairs so I was a bit more distracted than I expected, though I do still feel fairly confident in most of my answers. ",2320196.7,"convex_area2","different","shape3_convex_area2",NA,"",0,1,"convex"
"11","shape2","convex_area2",1,10,"different",9,2908.2,"558980cdfdf99b7ae47f5a75","ducktruck","control",2127077.7,"611a8cbde46ef77ccdf8b0c1","611abc2dcbd349bae6b453c2","Chrome",92,761,1453,1440,2560,"q"," -- select an option -- ",NA,"Looking at two photos of unusual shapes & trying to detect if there was a change between the two objects. ","Determining if people could detect a change in objects when shown similar ones in rapid succession.","Everything went well though I do want to mention there were a couple of times my dog started barking downstairs so I was a bit more distracted than I expected, though I do still feel fairly confident in most of my answers. ",2320196.7,"convex_area2","different","shape2_convex_area2",NA,"",1,1,"convex"
"12","shape8","concave_area1",1,11,"different",9,2038.4,"558980cdfdf99b7ae47f5a75","ducktruck","control",2127077.7,"611a8cbde46ef77ccdf8b0c1","611abc2dcbd349bae6b453c2","Chrome",92,761,1453,1440,2560,"q"," -- select an option -- ",NA,"Looking at two photos of unusual shapes & trying to detect if there was a change between the two objects. ","Determining if people could detect a change in objects when shown similar ones in rapid succession.","Everything went well though I do want to mention there were a couple of times my dog started barking downstairs so I was a bit more distracted than I expected, though I do still feel fairly confident in most of my answers. ",2320196.7,"concave_area1","different","shape8_concave_area1",NA,"",1,1,"concave"
"13","shape5","concave_area1",1,12,"different",7,3116.3,"558980cdfdf99b7ae47f5a75","ducktruck","control",2127077.7,"611a8cbde46ef77ccdf8b0c1","611abc2dcbd349bae6b453c2","Chrome",92,761,1453,1440,2560,"q"," -- select an option -- ",NA,"Looking at two photos of unusual shapes & trying to detect if there was a change between the two objects. ","Determining if people could detect a change in objects when shown similar ones in rapid succession.","Everything went well though I do want to mention there were a couple of times my dog started barking downstairs so I was a bit more distracted than I expected, though I do still feel fairly confident in most of my answers. ",2320196.7,"concave_area1","different","shape5_concave_area1",NA,"",1,1,"concave"
"14","shape1","convex_area2",1,13,"different",9,1663.1,"558980cdfdf99b7ae47f5a75","ducktruck","control",2127077.7,"611a8cbde46ef77ccdf8b0c1","611abc2dcbd349bae6b453c2","Chrome",92,761,1453,1440,2560,"q"," -- select an option -- ",NA,"Looking at two photos of unusual shapes & trying to detect if there was a change between the two objects. ","Determining if people could detect a change in objects when shown similar ones in rapid succession.","Everything went well though I do want to mention there were a couple of times my dog started barking downstairs so I was a bit more distracted than I expected, though I do still feel fairly confident in most of my answers. ",2320196.7,"convex_area2","different","shape1_convex_area2",NA,"",1,1,"convex"
"15","shape4","no_change4",1,14,"same",9,2033,"558980cdfdf99b7ae47f5a75","ducktruck","control",2127077.7,"611a8cbde46ef77ccdf8b0c1","611abc2dcbd349bae6b453c2","Chrome",92,761,1453,1440,2560,"q"," -- select an option -- ",NA,"Looking at two photos of unusual shapes & trying to detect if there was a change between the two objects. ","Determining if people could detect a change in objects when shown similar ones in rapid succession.","Everything went well though I do want to mention there were a couple of times my dog started barking downstairs so I was a bit more distracted than I expected, though I do still feel fairly confident in most of my answers. ",2320196.7,"no_change","same","shape4_no_change4",0.365131636,"lr",1,1,"none"
"16","shape6","concave_nofill_area2",1,15,"different",9,1526.4,"558980cdfdf99b7ae47f5a75","ducktruck","control",2127077.7,"611a8cbde46ef77ccdf8b0c1","611abc2dcbd349bae6b453c2","Chrome",92,761,1453,1440,2560,"q"," -- select an option -- ",NA,"Looking at two photos of unusual shapes & trying to detect if there was a change between the two objects. ","Determining if people could detect a change in objects when shown similar ones in rapid succession.","Everything went well though I do want to mention there were a couple of times my dog started barking downstairs so I was a bit more distracted than I expected, though I do still feel fairly confident in most of my answers. ",2320196.7,"concave_nofill_area2","different","shape6_concave_nofill_area2",NA,"",1,1,"concave_nofill"
"17","shape7","convex_area2",1,16,"different",9,2454.5,"558980cdfdf99b7ae47f5a75","ducktruck","control",2127077.7,"611a8cbde46ef77ccdf8b0c1","611abc2dcbd349bae6b453c2","Chrome",92,761,1453,1440,2560,"q"," -- select an option -- ",NA,"Looking at two photos of unusual shapes & trying to detect if there was a change between the two objects. ","Determining if people could detect a change in objects when shown similar ones in rapid succession.","Everything went well though I do want to mention there were a couple of times my dog started barking downstairs so I was a bit more distracted than I expected, though I do still feel fairly confident in most of my answers. ",2320196.7,"convex_area2","different","shape7_convex_area2",NA,"",1,1,"convex"
"18","catch_shape","change2",1,17,"different",9,1509.9,"558980cdfdf99b7ae47f5a75","ducktruck","control",2127077.7,"611a8cbde46ef77ccdf8b0c1","611abc2dcbd349bae6b453c2","Chrome",92,761,1453,1440,2560,"q"," -- select an option -- ",NA,"Looking at two photos of unusual shapes & trying to detect if there was a change between the two objects. ","Determining if people could detect a change in objects when shown similar ones in rapid succession.","Everything went well though I do want to mention there were a couple of times my dog started barking downstairs so I was a bit more distracted than I expected, though I do still feel fairly confident in most of my answers. ",2320196.7,"change2","different","catch_shape_change2",0.041068991,"lr",1,1,"none"
"19","shape1","no_change1",2,18,"same",8,2758,"558980cdfdf99b7ae47f5a75","ducktruck","control",2127077.7,"611a8cbde46ef77ccdf8b0c1","611abc2dcbd349bae6b453c2","Chrome",92,761,1453,1440,2560,"q"," -- select an option -- ",NA,"Looking at two photos of unusual shapes & trying to detect if there was a change between the two objects. ","Determining if people could detect a change in objects when shown similar ones in rapid succession.","Everything went well though I do want to mention there were a couple of times my dog started barking downstairs so I was a bit more distracted than I expected, though I do still feel fairly confident in most of my answers. ",2320196.7,"no_change","same","shape1_no_change1",0.016503743,"lr",1,1,"none"
"20","shape7","no_change4",2,19,"different",5,4334.3,"558980cdfdf99b7ae47f5a75","ducktruck","control",2127077.7,"611a8cbde46ef77ccdf8b0c1","611abc2dcbd349bae6b453c2","Chrome",92,761,1453,1440,2560,"q"," -- select an option -- ",NA,"Looking at two photos of unusual shapes & trying to detect if there was a change between the two objects. ","Determining if people could detect a change in objects when shown similar ones in rapid succession.","Everything went well though I do want to mention there were a couple of times my dog started barking downstairs so I was a bit more distracted than I expected, though I do still feel fairly confident in most of my answers. ",2320196.7,"no_change","same","shape7_no_change4",0.137952561,"rl",0,1,"none"
"21","shape6","concave_area2",2,20,"different",8,2174.7,"558980cdfdf99b7ae47f5a75","ducktruck","control",2127077.7,"611a8cbde46ef77ccdf8b0c1","611abc2dcbd349bae6b453c2","Chrome",92,761,1453,1440,2560,"q"," -- select an option -- ",NA,"Looking at two photos of unusual shapes & trying to detect if there was a change between the two objects. ","Determining if people could detect a change in objects when shown similar ones in rapid succession.","Everything went well though I do want to mention there were a couple of times my dog started barking downstairs so I was a bit more distracted than I expected, though I do still feel fairly confident in most of my answers. ",2320196.7,"concave_area2","different","shape6_concave_area2",NA,"",1,1,"concave"
"22","catch_shape","no_change2",2,21,"same",9,1710.7,"558980cdfdf99b7ae47f5a75","ducktruck","control",2127077.7,"611a8cbde46ef77ccdf8b0c1","611abc2dcbd349bae6b453c2","Chrome",92,761,1453,1440,2560,"q"," -- select an option -- ",NA,"Looking at two photos of unusual shapes & trying to detect if there was a change between the two objects. ","Determining if people could detect a change in objects when shown similar ones in rapid succession.","Everything went well though I do want to mention there were a couple of times my dog started barking downstairs so I was a bit more distracted than I expected, though I do still feel fairly confident in most of my answers. ",2320196.7,"no_change","same","catch_shape_no_change2",0.245336605,"lr",1,1,"none"
"23","shape2","concave_nofill_area2",2,22,"different",8,1861.8,"558980cdfdf99b7ae47f5a75","ducktruck","control",2127077.7,"611a8cbde46ef77ccdf8b0c1","611abc2dcbd349bae6b453c2","Chrome",92,761,1453,1440,2560,"q"," -- select an option -- ",NA,"Looking at two photos of unusual shapes & trying to detect if there was a change between the two objects. ","Determining if people could detect a change in objects when shown similar ones in rapid succession.","Everything went well though I do want to mention there were a couple of times my dog started barking downstairs so I was a bit more distracted than I expected, though I do still feel fairly confident in most of my answers. ",2320196.7,"concave_nofill_area2","different","shape2_concave_nofill_area2",NA,"",1,1,"concave_nofill"
"24","shape5","concave_nofill_area1",2,23,"different",9,2503.4,"558980cdfdf99b7ae47f5a75","ducktruck","control",2127077.7,"611a8cbde46ef77ccdf8b0c1","611abc2dcbd349bae6b453c2","Chrome",92,761,1453,1440,2560,"q"," -- select an option -- ",NA,"Looking at two photos of unusual shapes & trying to detect if there was a change between the two objects. ","Determining if people could detect a change in objects when shown similar ones in rapid succession.","Everything went well though I do want to mention there were a couple of times my dog started barking downstairs so I was a bit more distracted than I expected, though I do still feel fairly confident in most of my answers. ",2320196.7,"concave_nofill_area1","different","shape5_concave_nofill_area1",NA,"",1,1,"concave_nofill"
"25","shape3","no_change6",2,24,"same",9,1702.9,"558980cdfdf99b7ae47f5a75","ducktruck","control",2127077.7,"611a8cbde46ef77ccdf8b0c1","611abc2dcbd349bae6b453c2","Chrome",92,761,1453,1440,2560,"q"," -- select an option -- ",NA,"Looking at two photos of unusual shapes & trying to detect if there was a change between the two objects. ","Determining if people could detect a change in objects when shown similar ones in rapid succession.","Everything went well though I do want to mention there were a couple of times my dog started barking downstairs so I was a bit more distracted than I expected, though I do still feel fairly confident in most of my answers. ",2320196.7,"no_change","same","shape3_no_change6",0.201307988,"rl",1,1,"none"
"26","shape4","no_change3",2,25,"same",9,2151.8,"558980cdfdf99b7ae47f5a75","ducktruck","control",2127077.7,"611a8cbde46ef77ccdf8b0c1","611abc2dcbd349bae6b453c2","Chrome",92,761,1453,1440,2560,"q"," -- select an option -- ",NA,"Looking at two photos of unusual shapes & trying to detect if there was a change between the two objects. ","Determining if people could detect a change in objects when shown similar ones in rapid succession.","Everything went well though I do want to mention there were a couple of times my dog started barking downstairs so I was a bit more distracted than I expected, though I do still feel fairly confident in most of my answers. ",2320196.7,"no_change","same","shape4_no_change3",0.373745849,"rl",1,1,"none"
"27","shape8","no_change4",2,26,"same",9,1571.5,"558980cdfdf99b7ae47f5a75","ducktruck","control",2127077.7,"611a8cbde46ef77ccdf8b0c1","611abc2dcbd349bae6b453c2","Chrome",92,761,1453,1440,2560,"q"," -- select an option -- ",NA,"Looking at two photos of unusual shapes & trying to detect if there was a change between the two objects. ","Determining if people could detect a change in objects when shown similar ones in rapid succession.","Everything went well though I do want to mention there were a couple of times my dog started barking downstairs so I was a bit more distracted than I expected, though I do still feel fairly confident in most of my answers. ",2320196.7,"no_change","same","shape8_no_change4",0.067118883,"lr",1,1,"none"
"28","shape1","no_change6",3,27,"same",9,2189.6,"558980cdfdf99b7ae47f5a75","ducktruck","control",2127077.7,"611a8cbde46ef77ccdf8b0c1","611abc2dcbd349bae6b453c2","Chrome",92,761,1453,1440,2560,"q"," -- select an option -- ",NA,"Looking at two photos of unusual shapes & trying to detect if there was a change between the two objects. ","Determining if people could detect a change in objects when shown similar ones in rapid succession.","Everything went well though I do want to mention there were a couple of times my dog started barking downstairs so I was a bit more distracted than I expected, though I do still feel fairly confident in most of my answers. ",2320196.7,"no_change","same","shape1_no_change6",0.440461145,"rl",1,1,"none"
"29","shape2","no_change3",3,28,"same",9,4934.3,"558980cdfdf99b7ae47f5a75","ducktruck","control",2127077.7,"611a8cbde46ef77ccdf8b0c1","611abc2dcbd349bae6b453c2","Chrome",92,761,1453,1440,2560,"q"," -- select an option -- ",NA,"Looking at two photos of unusual shapes & trying to detect if there was a change between the two objects. ","Determining if people could detect a change in objects when shown similar ones in rapid succession.","Everything went well though I do want to mention there were a couple of times my dog started barking downstairs so I was a bit more distracted than I expected, though I do still feel fairly confident in most of my answers. ",2320196.7,"no_change","same","shape2_no_change3",0.99679993,"rl",1,1,"none"
"30","shape6","no_change2",3,29,"same",7,3147.7,"558980cdfdf99b7ae47f5a75","ducktruck","control",2127077.7,"611a8cbde46ef77ccdf8b0c1","611abc2dcbd349bae6b453c2","Chrome",92,761,1453,1440,2560,"q"," -- select an option -- ",NA,"Looking at two photos of unusual shapes & trying to detect if there was a change between the two objects. ","Determining if people could detect a change in objects when shown similar ones in rapid succession.","Everything went well though I do want to mention there were a couple of times my dog started barking downstairs so I was a bit more distracted than I expected, though I do still feel fairly confident in most of my answers. ",2320196.7,"no_change","same","shape6_no_change2",0.914900387,"rl",1,1,"none"
"31","shape7","concave_area2",3,30,"different",9,4808.6,"558980cdfdf99b7ae47f5a75","ducktruck","control",2127077.7,"611a8cbde46ef77ccdf8b0c1","611abc2dcbd349bae6b453c2","Chrome",92,761,1453,1440,2560,"q"," -- select an option -- ",NA,"Looking at two photos of unusual shapes & trying to detect if there was a change between the two objects. ","Determining if people could detect a change in objects when shown similar ones in rapid succession.","Everything went well though I do want to mention there were a couple of times my dog started barking downstairs so I was a bit more distracted than I expected, though I do still feel fairly confident in most of my answers. ",2320196.7,"concave_area2","different","shape7_concave_area2",NA,"",1,1,"concave"
"32","shape5","no_change5",3,31,"same",8,3470.4,"558980cdfdf99b7ae47f5a75","ducktruck","control",2127077.7,"611a8cbde46ef77ccdf8b0c1","611abc2dcbd349bae6b453c2","Chrome",92,761,1453,1440,2560,"q"," -- select an option -- ",NA,"Looking at two photos of unusual shapes & trying to detect if there was a change between the two objects. ","Determining if people could detect a change in objects when shown similar ones in rapid succession.","Everything went well though I do want to mention there were a couple of times my dog started barking downstairs so I was a bit more distracted than I expected, though I do still feel fairly confident in most of my answers. ",2320196.7,"no_change","same","shape5_no_change5",0.56268488,"rl",1,1,"none"
"33","shape8","no_change3",3,32,"different",8,2733.4,"558980cdfdf99b7ae47f5a75","ducktruck","control",2127077.7,"611a8cbde46ef77ccdf8b0c1","611abc2dcbd349bae6b453c2","Chrome",92,761,1453,1440,2560,"q"," -- select an option -- ",NA,"Looking at two photos of unusual shapes & trying to detect if there was a change between the two objects. ","Determining if people could detect a change in objects when shown similar ones in rapid succession.","Everything went well though I do want to mention there were a couple of times my dog started barking downstairs so I was a bit more distracted than I expected, though I do still feel fairly confident in most of my answers. ",2320196.7,"no_change","same","shape8_no_change3",0.848020062,"rl",0,1,"none"
"34","catch_shape","no_change5",3,33,"same",9,1539.7,"558980cdfdf99b7ae47f5a75","ducktruck","control",2127077.7,"611a8cbde46ef77ccdf8b0c1","611abc2dcbd349bae6b453c2","Chrome",92,761,1453,1440,2560,"q"," -- select an option -- ",NA,"Looking at two photos of unusual shapes & trying to detect if there was a change between the two objects. ","Determining if people could detect a change in objects when shown similar ones in rapid succession.","Everything went well though I do want to mention there were a couple of times my dog started barking downstairs so I was a bit more distracted than I expected, though I do still feel fairly confident in most of my answers. ",2320196.7,"no_change","same","catch_shape_no_change5",0.255306165,"rl",1,1,"none"
"35","shape3","no_change2",3,34,"same",8,4026,"558980cdfdf99b7ae47f5a75","ducktruck","control",2127077.7,"611a8cbde46ef77ccdf8b0c1","611abc2dcbd349bae6b453c2","Chrome",92,761,1453,1440,2560,"q"," -- select an option -- ",NA,"Looking at two photos of unusual shapes & trying to detect if there was a change between the two objects. ","Determining if people could detect a change in objects when shown similar ones in rapid succession.","Everything went well though I do want to mention there were a couple of times my dog started barking downstairs so I was a bit more distracted than I expected, though I do still feel fairly confident in most of my answers. ",2320196.7,"no_change","same","shape3_no_change2",0.7109621,"lr",1,1,"none"
"36","shape4","concave_area1",3,35,"different",9,3966.5,"558980cdfdf99b7ae47f5a75","ducktruck","control",2127077.7,"611a8cbde46ef77ccdf8b0c1","611abc2dcbd349bae6b453c2","Chrome",92,761,1453,1440,2560,"q"," -- select an option -- ",NA,"Looking at two photos of unusual shapes & trying to detect if there was a change between the two objects. ","Determining if people could detect a change in objects when shown similar ones in rapid succession.","Everything went well though I do want to mention there were a couple of times my dog started barking downstairs so I was a bit more distracted than I expected, though I do still feel fairly confident in most of my answers. ",2320196.7,"concave_area1","different","shape4_concave_area1",NA,"",1,1,"concave"
"37","shape1","no_change5",4,36,"same",9,98590.5,"558980cdfdf99b7ae47f5a75","ducktruck","control",2127077.7,"611a8cbde46ef77ccdf8b0c1","611abc2dcbd349bae6b453c2","Chrome",92,761,1453,1440,2560,"q"," -- select an option -- ",NA,"Looking at two photos of unusual shapes & trying to detect if there was a change between the two objects. ","Determining if people could detect a change in objects when shown similar ones in rapid succession.","Everything went well though I do want to mention there were a couple of times my dog started barking downstairs so I was a bit more distracted than I expected, though I do still feel fairly confident in most of my answers. ",2320196.7,"no_change","same","shape1_no_change5",0.982639687,"rl",1,1,"none"
"38","shape8","concave_area2",4,37,"different",9,2351.1,"558980cdfdf99b7ae47f5a75","ducktruck","control",2127077.7,"611a8cbde46ef77ccdf8b0c1","611abc2dcbd349bae6b453c2","Chrome",92,761,1453,1440,2560,"q"," -- select an option -- ",NA,"Looking at two photos of unusual shapes & trying to detect if there was a change between the two objects. ","Determining if people could detect a change in objects when shown similar ones in rapid succession.","Everything went well though I do want to mention there were a couple of times my dog started barking downstairs so I was a bit more distracted than I expected, though I do still feel fairly confident in most of my answers. ",2320196.7,"concave_area2","different","shape8_concave_area2",NA,"",1,1,"concave"
"39","shape7","convex_area1",4,38,"different",9,2210.5,"558980cdfdf99b7ae47f5a75","ducktruck","control",2127077.7,"611a8cbde46ef77ccdf8b0c1","611abc2dcbd349bae6b453c2","Chrome",92,761,1453,1440,2560,"q"," -- select an option -- ",NA,"Looking at two photos of unusual shapes & trying to detect if there was a change between the two objects. ","Determining if people could detect a change in objects when shown similar ones in rapid succession.","Everything went well though I do want to mention there were a couple of times my dog started barking downstairs so I was a bit more distracted than I expected, though I do still feel fairly confident in most of my answers. ",2320196.7,"convex_area1","different","shape7_convex_area1",NA,"",1,1,"convex"
"40","shape2","convex_area1",4,39,"different",9,1797.5,"558980cdfdf99b7ae47f5a75","ducktruck","control",2127077.7,"611a8cbde46ef77ccdf8b0c1","611abc2dcbd349bae6b453c2","Chrome",92,761,1453,1440,2560,"q"," -- select an option -- ",NA,"Looking at two photos of unusual shapes & trying to detect if there was a change between the two objects. ","Determining if people could detect a change in objects when shown similar ones in rapid succession.","Everything went well though I do want to mention there were a couple of times my dog started barking downstairs so I was a bit more distracted than I expected, though I do still feel fairly confident in most of my answers. ",2320196.7,"convex_area1","different","shape2_convex_area1",NA,"",1,1,"convex"
"41","shape4","convex_area2",4,40,"different",8,2105.5,"558980cdfdf99b7ae47f5a75","ducktruck","control",2127077.7,"611a8cbde46ef77ccdf8b0c1","611abc2dcbd349bae6b453c2","Chrome",92,761,1453,1440,2560,"q"," -- select an option -- ",NA,"Looking at two photos of unusual shapes & trying to detect if there was a change between the two objects. ","Determining if people could detect a change in objects when shown similar ones in rapid succession.","Everything went well though I do want to mention there were a couple of times my dog started barking downstairs so I was a bit more distracted than I expected, though I do still feel fairly confident in most of my answers. ",2320196.7,"convex_area2","different","shape4_convex_area2",NA,"",1,1,"convex"
"42","catch_shape","change3",4,41,"different",9,2604.7,"558980cdfdf99b7ae47f5a75","ducktruck","control",2127077.7,"611a8cbde46ef77ccdf8b0c1","611abc2dcbd349bae6b453c2","Chrome",92,761,1453,1440,2560,"q"," -- select an option -- ",NA,"Looking at two photos of unusual shapes & trying to detect if there was a change between the two objects. ","Determining if people could detect a change in objects when shown similar ones in rapid succession.","Everything went well though I do want to mention there were a couple of times my dog started barking downstairs so I was a bit more distracted than I expected, though I do still feel fairly confident in most of my answers. ",2320196.7,"change3","different","catch_shape_change3",0.641318987,"lr",1,1,"none"
"43","shape3","no_change1",4,42,"same",9,1663.1,"558980cdfdf99b7ae47f5a75","ducktruck","control",2127077.7,"611a8cbde46ef77ccdf8b0c1","611abc2dcbd349bae6b453c2","Chrome",92,761,1453,1440,2560,"q"," -- select an option -- ",NA,"Looking at two photos of unusual shapes & trying to detect if there was a change between the two objects. ","Determining if people could detect a change in objects when shown similar ones in rapid succession.","Everything went well though I do want to mention there were a couple of times my dog started barking downstairs so I was a bit more distracted than I expected, though I do still feel fairly confident in most of my answers. ",2320196.7,"no_change","same","shape3_no_change1",0.679856633,"lr",1,1,"none"
"44","shape5","no_change1",4,43,"same",9,2474.1,"558980cdfdf99b7ae47f5a75","ducktruck","control",2127077.7,"611a8cbde46ef77ccdf8b0c1","611abc2dcbd349bae6b453c2","Chrome",92,761,1453,1440,2560,"q"," -- select an option -- ",NA,"Looking at two photos of unusual shapes & trying to detect if there was a change between the two objects. ","Determining if people could detect a change in objects when shown similar ones in rapid succession.","Everything went well though I do want to mention there were a couple of times my dog started barking downstairs so I was a bit more distracted than I expected, though I do still feel fairly confident in most of my answers. ",2320196.7,"no_change","same","shape5_no_change1",0.881336101,"lr",1,1,"none"
"45","shape6","convex_area1",4,44,"different",9,1835.8,"558980cdfdf99b7ae47f5a75","ducktruck","control",2127077.7,"611a8cbde46ef77ccdf8b0c1","611abc2dcbd349bae6b453c2","Chrome",92,761,1453,1440,2560,"q"," -- select an option -- ",NA,"Looking at two photos of unusual shapes & trying to detect if there was a change between the two objects. ","Determining if people could detect a change in objects when shown similar ones in rapid succession.","Everything went well though I do want to mention there were a couple of times my dog started barking downstairs so I was a bit more distracted than I expected, though I do still feel fairly confident in most of my answers. ",2320196.7,"convex_area1","different","shape6_convex_area1",NA,"",1,1,"convex"
"46","shape2","no_change2",5,45,"same",8,1784.7,"558980cdfdf99b7ae47f5a75","ducktruck","control",2127077.7,"611a8cbde46ef77ccdf8b0c1","611abc2dcbd349bae6b453c2","Chrome",92,761,1453,1440,2560,"q"," -- select an option -- ",NA,"Looking at two photos of unusual shapes & trying to detect if there was a change between the two objects. ","Determining if people could detect a change in objects when shown similar ones in rapid succession.","Everything went well though I do want to mention there were a couple of times my dog started barking downstairs so I was a bit more distracted than I expected, though I do still feel fairly confident in most of my answers. ",2320196.7,"no_change","same","shape2_no_change2",0.830736492,"rl",1,1,"none"
"47","shape3","convex_area1",5,46,"different",7,2256.8,"558980cdfdf99b7ae47f5a75","ducktruck","control",2127077.7,"611a8cbde46ef77ccdf8b0c1","611abc2dcbd349bae6b453c2","Chrome",92,761,1453,1440,2560,"q"," -- select an option -- ",NA,"Looking at two photos of unusual shapes & trying to detect if there was a change between the two objects. ","Determining if people could detect a change in objects when shown similar ones in rapid succession.","Everything went well though I do want to mention there were a couple of times my dog started barking downstairs so I was a bit more distracted than I expected, though I do still feel fairly confident in most of my answers. ",2320196.7,"convex_area1","different","shape3_convex_area1",NA,"",1,1,"convex"
"48","shape4","convex_area1",5,47,"different",9,3567.7,"558980cdfdf99b7ae47f5a75","ducktruck","control",2127077.7,"611a8cbde46ef77ccdf8b0c1","611abc2dcbd349bae6b453c2","Chrome",92,761,1453,1440,2560,"q"," -- select an option -- ",NA,"Looking at two photos of unusual shapes & trying to detect if there was a change between the two objects. ","Determining if people could detect a change in objects when shown similar ones in rapid succession.","Everything went well though I do want to mention there were a couple of times my dog started barking downstairs so I was a bit more distracted than I expected, though I do still feel fairly confident in most of my answers. ",2320196.7,"convex_area1","different","shape4_convex_area1",NA,"",1,1,"convex"
"49","shape7","no_change6",5,48,"different",6,2098.6,"558980cdfdf99b7ae47f5a75","ducktruck","control",2127077.7,"611a8cbde46ef77ccdf8b0c1","611abc2dcbd349bae6b453c2","Chrome",92,761,1453,1440,2560,"q"," -- select an option -- ",NA,"Looking at two photos of unusual shapes & trying to detect if there was a change between the two objects. ","Determining if people could detect a change in objects when shown similar ones in rapid succession.","Everything went well though I do want to mention there were a couple of times my dog started barking downstairs so I was a bit more distracted than I expected, though I do still feel fairly confident in most of my answers. ",2320196.7,"no_change","same","shape7_no_change6",0.486576497,"rl",0,1,"none"
"50","shape5","concave_area2",5,49,"different",9,1816.2,"558980cdfdf99b7ae47f5a75","ducktruck","control",2127077.7,"611a8cbde46ef77ccdf8b0c1","611abc2dcbd349bae6b453c2","Chrome",92,761,1453,1440,2560,"q"," -- select an option -- ",NA,"Looking at two photos of unusual shapes & trying to detect if there was a change between the two objects. ","Determining if people could detect a change in objects when shown similar ones in rapid succession.","Everything went well though I do want to mention there were a couple of times my dog started barking downstairs so I was a bit more distracted than I expected, though I do still feel fairly confident in most of my answers. ",2320196.7,"concave_area2","different","shape5_concave_area2",NA,"",1,1,"concave"
"51","catch_shape","no_change1",5,50,"same",9,3810.4,"558980cdfdf99b7ae47f5a75","ducktruck","control",2127077.7,"611a8cbde46ef77ccdf8b0c1","611abc2dcbd349bae6b453c2","Chrome",92,761,1453,1440,2560,"q"," -- select an option -- ",NA,"Looking at two photos of unusual shapes & trying to detect if there was a change between the two objects. ","Determining if people could detect a change in objects when shown similar ones in rapid succession.","Everything went well though I do want to mention there were a couple of times my dog started barking downstairs so I was a bit more distracted than I expected, though I do still feel fairly confident in most of my answers. ",2320196.7,"no_change","same","catch_shape_no_change1",0.953456641,"lr",1,1,"none"
"52","shape6","no_change4",5,51,"same",9,2544.6,"558980cdfdf99b7ae47f5a75","ducktruck","control",2127077.7,"611a8cbde46ef77ccdf8b0c1","611abc2dcbd349bae6b453c2","Chrome",92,761,1453,1440,2560,"q"," -- select an option -- ",NA,"Looking at two photos of unusual shapes & trying to detect if there was a change between the two objects. ","Determining if people could detect a change in objects when shown similar ones in rapid succession.","Everything went well though I do want to mention there were a couple of times my dog started barking downstairs so I was a bit more distracted than I expected, though I do still feel fairly confident in most of my answers. ",2320196.7,"no_change","same","shape6_no_change4",0.964328177,"lr",1,1,"none"
"53","shape8","concave_nofill_area1",5,52,"different",9,1939.5,"558980cdfdf99b7ae47f5a75","ducktruck","control",2127077.7,"611a8cbde46ef77ccdf8b0c1","611abc2dcbd349bae6b453c2","Chrome",92,761,1453,1440,2560,"q"," -- select an option -- ",NA,"Looking at two photos of unusual shapes & trying to detect if there was a change between the two objects. ","Determining if people could detect a change in objects when shown similar ones in rapid succession.","Everything went well though I do want to mention there were a couple of times my dog started barking downstairs so I was a bit more distracted than I expected, though I do still feel fairly confident in most of my answers. ",2320196.7,"concave_nofill_area1","different","shape8_concave_nofill_area1",NA,"",1,1,"concave_nofill"
"54","shape1","concave_area1",5,53,"different",7,2587.6,"558980cdfdf99b7ae47f5a75","ducktruck","control",2127077.7,"611a8cbde46ef77ccdf8b0c1","611abc2dcbd349bae6b453c2","Chrome",92,761,1453,1440,2560,"q"," -- select an option -- ",NA,"Looking at two photos of unusual shapes & trying to detect if there was a change between the two objects. ","Determining if people could detect a change in objects when shown similar ones in rapid succession.","Everything went well though I do want to mention there were a couple of times my dog started barking downstairs so I was a bit more distracted than I expected, though I do still feel fairly confident in most of my answers. ",2320196.7,"concave_area1","different","shape1_concave_area1",NA,"",1,1,"concave"
"55","shape6","no_change6",6,54,"same",9,2703.5,"558980cdfdf99b7ae47f5a75","ducktruck","control",2127077.7,"611a8cbde46ef77ccdf8b0c1","611abc2dcbd349bae6b453c2","Chrome",92,761,1453,1440,2560,"q"," -- select an option -- ",NA,"Looking at two photos of unusual shapes & trying to detect if there was a change between the two objects. ","Determining if people could detect a change in objects when shown similar ones in rapid succession.","Everything went well though I do want to mention there were a couple of times my dog started barking downstairs so I was a bit more distracted than I expected, though I do still feel fairly confident in most of my answers. ",2320196.7,"no_change","same","shape6_no_change6",0.265877314,"lr",1,1,"none"
"56","shape5","no_change6",6,55,"different",6,2174.5,"558980cdfdf99b7ae47f5a75","ducktruck","control",2127077.7,"611a8cbde46ef77ccdf8b0c1","611abc2dcbd349bae6b453c2","Chrome",92,761,1453,1440,2560,"q"," -- select an option -- ",NA,"Looking at two photos of unusual shapes & trying to detect if there was a change between the two objects. ","Determining if people could detect a change in objects when shown similar ones in rapid succession.","Everything went well though I do want to mention there were a couple of times my dog started barking downstairs so I was a bit more distracted than I expected, though I do still feel fairly confident in most of my answers. ",2320196.7,"no_change","same","shape5_no_change6",0.154617517,"rl",0,1,"none"
"57","shape4","concave_nofill_area2",6,56,"different",9,2162.3,"558980cdfdf99b7ae47f5a75","ducktruck","control",2127077.7,"611a8cbde46ef77ccdf8b0c1","611abc2dcbd349bae6b453c2","Chrome",92,761,1453,1440,2560,"q"," -- select an option -- ",NA,"Looking at two photos of unusual shapes & trying to detect if there was a change between the two objects. ","Determining if people could detect a change in objects when shown similar ones in rapid succession.","Everything went well though I do want to mention there were a couple of times my dog started barking downstairs so I was a bit more distracted than I expected, though I do still feel fairly confident in most of my answers. ",2320196.7,"concave_nofill_area2","different","shape4_concave_nofill_area2",NA,"",1,1,"concave_nofill"
"58","shape3","no_change5",6,57,"different",6,2255.8,"558980cdfdf99b7ae47f5a75","ducktruck","control",2127077.7,"611a8cbde46ef77ccdf8b0c1","611abc2dcbd349bae6b453c2","Chrome",92,761,1453,1440,2560,"q"," -- select an option -- ",NA,"Looking at two photos of unusual shapes & trying to detect if there was a change between the two objects. ","Determining if people could detect a change in objects when shown similar ones in rapid succession.","Everything went well though I do want to mention there were a couple of times my dog started barking downstairs so I was a bit more distracted than I expected, though I do still feel fairly confident in most of my answers. ",2320196.7,"no_change","same","shape3_no_change5",0.343132045,"rl",0,1,"none"
"59","shape2","no_change1",6,58,"same",7,1727.8,"558980cdfdf99b7ae47f5a75","ducktruck","control",2127077.7,"611a8cbde46ef77ccdf8b0c1","611abc2dcbd349bae6b453c2","Chrome",92,761,1453,1440,2560,"q"," -- select an option -- ",NA,"Looking at two photos of unusual shapes & trying to detect if there was a change between the two objects. ","Determining if people could detect a change in objects when shown similar ones in rapid succession.","Everything went well though I do want to mention there were a couple of times my dog started barking downstairs so I was a bit more distracted than I expected, though I do still feel fairly confident in most of my answers. ",2320196.7,"no_change","same","shape2_no_change1",0.230009402,"rl",1,1,"none"
"60","shape8","no_change1",6,59,"same",9,1611.8,"558980cdfdf99b7ae47f5a75","ducktruck","control",2127077.7,"611a8cbde46ef77ccdf8b0c1","611abc2dcbd349bae6b453c2","Chrome",92,761,1453,1440,2560,"q"," -- select an option -- ",NA,"Looking at two photos of unusual shapes & trying to detect if there was a change between the two objects. ","Determining if people could detect a change in objects when shown similar ones in rapid succession.","Everything went well though I do want to mention there were a couple of times my dog started barking downstairs so I was a bit more distracted than I expected, though I do still feel fairly confident in most of my answers. ",2320196.7,"no_change","same","shape8_no_change1",0.36455825,"rl",1,1,"none"
"61","catch_shape","no_change4",6,60,"same",9,1707.5,"558980cdfdf99b7ae47f5a75","ducktruck","control",2127077.7,"611a8cbde46ef77ccdf8b0c1","611abc2dcbd349bae6b453c2","Chrome",92,761,1453,1440,2560,"q"," -- select an option -- ",NA,"Looking at two photos of unusual shapes & trying to detect if there was a change between the two objects. ","Determining if people could detect a change in objects when shown similar ones in rapid succession.","Everything went well though I do want to mention there were a couple of times my dog started barking downstairs so I was a bit more distracted than I expected, though I do still feel fairly confident in most of my answers. ",2320196.7,"no_change","same","catch_shape_no_change4",0.463620285,"rl",1,1,"none"
"62","shape1","no_change2",6,61,"same",9,10214.1,"558980cdfdf99b7ae47f5a75","ducktruck","control",2127077.7,"611a8cbde46ef77ccdf8b0c1","611abc2dcbd349bae6b453c2","Chrome",92,761,1453,1440,2560,"q"," -- select an option -- ",NA,"Looking at two photos of unusual shapes & trying to detect if there was a change between the two objects. ","Determining if people could detect a change in objects when shown similar ones in rapid succession.","Everything went well though I do want to mention there were a couple of times my dog started barking downstairs so I was a bit more distracted than I expected, though I do still feel fairly confident in most of my answers. ",2320196.7,"no_change","same","shape1_no_change2",0.149646973,"lr",1,1,"none"
"63","shape7","no_change3",6,62,"different",6,3134.5,"558980cdfdf99b7ae47f5a75","ducktruck","control",2127077.7,"611a8cbde46ef77ccdf8b0c1","611abc2dcbd349bae6b453c2","Chrome",92,761,1453,1440,2560,"q"," -- select an option -- ",NA,"Looking at two photos of unusual shapes & trying to detect if there was a change between the two objects. ","Determining if people could detect a change in objects when shown similar ones in rapid succession.","Everything went well though I do want to mention there were a couple of times my dog started barking downstairs so I was a bit more distracted than I expected, though I do still feel fairly confident in most of my answers. ",2320196.7,"no_change","same","shape7_no_change3",0.306079767,"lr",0,1,"none"
"64","shape3","concave_nofill_area1",7,63,"different",9,2519.8,"558980cdfdf99b7ae47f5a75","ducktruck","control",2127077.7,"611a8cbde46ef77ccdf8b0c1","611abc2dcbd349bae6b453c2","Chrome",92,761,1453,1440,2560,"q"," -- select an option -- ",NA,"Looking at two photos of unusual shapes & trying to detect if there was a change between the two objects. ","Determining if people could detect a change in objects when shown similar ones in rapid succession.","Everything went well though I do want to mention there were a couple of times my dog started barking downstairs so I was a bit more distracted than I expected, though I do still feel fairly confident in most of my answers. ",2320196.7,"concave_nofill_area1","different","shape3_concave_nofill_area1",NA,"",1,1,"concave_nofill"
"65","shape4","concave_nofill_area1",7,64,"different",9,3110,"558980cdfdf99b7ae47f5a75","ducktruck","control",2127077.7,"611a8cbde46ef77ccdf8b0c1","611abc2dcbd349bae6b453c2","Chrome",92,761,1453,1440,2560,"q"," -- select an option -- ",NA,"Looking at two photos of unusual shapes & trying to detect if there was a change between the two objects. ","Determining if people could detect a change in objects when shown similar ones in rapid succession.","Everything went well though I do want to mention there were a couple of times my dog started barking downstairs so I was a bit more distracted than I expected, though I do still feel fairly confident in most of my answers. ",2320196.7,"concave_nofill_area1","different","shape4_concave_nofill_area1",NA,"",1,1,"concave_nofill"
"66","shape2","no_change5",7,65,"different",7,1910.8,"558980cdfdf99b7ae47f5a75","ducktruck","control",2127077.7,"611a8cbde46ef77ccdf8b0c1","611abc2dcbd349bae6b453c2","Chrome",92,761,1453,1440,2560,"q"," -- select an option -- ",NA,"Looking at two photos of unusual shapes & trying to detect if there was a change between the two objects. ","Determining if people could detect a change in objects when shown similar ones in rapid succession.","Everything went well though I do want to mention there were a couple of times my dog started barking downstairs so I was a bit more distracted than I expected, though I do still feel fairly confident in most of my answers. ",2320196.7,"no_change","same","shape2_no_change5",0.871216435,"lr",0,1,"none"
"67","shape6","concave_nofill_area1",7,66,"different",9,1782.7,"558980cdfdf99b7ae47f5a75","ducktruck","control",2127077.7,"611a8cbde46ef77ccdf8b0c1","611abc2dcbd349bae6b453c2","Chrome",92,761,1453,1440,2560,"q"," -- select an option -- ",NA,"Looking at two photos of unusual shapes & trying to detect if there was a change between the two objects. ","Determining if people could detect a change in objects when shown similar ones in rapid succession.","Everything went well though I do want to mention there were a couple of times my dog started barking downstairs so I was a bit more distracted than I expected, though I do still feel fairly confident in most of my answers. ",2320196.7,"concave_nofill_area1","different","shape6_concave_nofill_area1",NA,"",1,1,"concave_nofill"
"68","shape1","concave_area2",7,67,"different",9,3352.7,"558980cdfdf99b7ae47f5a75","ducktruck","control",2127077.7,"611a8cbde46ef77ccdf8b0c1","611abc2dcbd349bae6b453c2","Chrome",92,761,1453,1440,2560,"q"," -- select an option -- ",NA,"Looking at two photos of unusual shapes & trying to detect if there was a change between the two objects. ","Determining if people could detect a change in objects when shown similar ones in rapid succession.","Everything went well though I do want to mention there were a couple of times my dog started barking downstairs so I was a bit more distracted than I expected, though I do still feel fairly confident in most of my answers. ",2320196.7,"concave_area2","different","shape1_concave_area2",NA,"",1,1,"concave"
"69","shape8","convex_area1",7,68,"different",9,2156.2,"558980cdfdf99b7ae47f5a75","ducktruck","control",2127077.7,"611a8cbde46ef77ccdf8b0c1","611abc2dcbd349bae6b453c2","Chrome",92,761,1453,1440,2560,"q"," -- select an option -- ",NA,"Looking at two photos of unusual shapes & trying to detect if there was a change between the two objects. ","Determining if people could detect a change in objects when shown similar ones in rapid succession.","Everything went well though I do want to mention there were a couple of times my dog started barking downstairs so I was a bit more distracted than I expected, though I do still feel fairly confident in most of my answers. ",2320196.7,"convex_area1","different","shape8_convex_area1",NA,"",1,1,"convex"
"70","shape5","no_change2",7,69,"same",9,3932.9,"558980cdfdf99b7ae47f5a75","ducktruck","control",2127077.7,"611a8cbde46ef77ccdf8b0c1","611abc2dcbd349bae6b453c2","Chrome",92,761,1453,1440,2560,"q"," -- select an option -- ",NA,"Looking at two photos of unusual shapes & trying to detect if there was a change between the two objects. ","Determining if people could detect a change in objects when shown similar ones in rapid succession.","Everything went well though I do want to mention there were a couple of times my dog started barking downstairs so I was a bit more distracted than I expected, though I do still feel fairly confident in most of my answers. ",2320196.7,"no_change","same","shape5_no_change2",0.185057363,"lr",1,1,"none"
"71","shape7","no_change2",7,70,"same",9,1622.8,"558980cdfdf99b7ae47f5a75","ducktruck","control",2127077.7,"611a8cbde46ef77ccdf8b0c1","611abc2dcbd349bae6b453c2","Chrome",92,761,1453,1440,2560,"q"," -- select an option -- ",NA,"Looking at two photos of unusual shapes & trying to detect if there was a change between the two objects. ","Determining if people could detect a change in objects when shown similar ones in rapid succession.","Everything went well though I do want to mention there were a couple of times my dog started barking downstairs so I was a bit more distracted than I expected, though I do still feel fairly confident in most of my answers. ",2320196.7,"no_change","same","shape7_no_change2",0.548394241,"lr",1,1,"none"
"72","catch_shape","no_change3",7,71,"same",9,2329.4,"558980cdfdf99b7ae47f5a75","ducktruck","control",2127077.7,"611a8cbde46ef77ccdf8b0c1","611abc2dcbd349bae6b453c2","Chrome",92,761,1453,1440,2560,"q"," -- select an option -- ",NA,"Looking at two photos of unusual shapes & trying to detect if there was a change between the two objects. ","Determining if people could detect a change in objects when shown similar ones in rapid succession.","Everything went well though I do want to mention there were a couple of times my dog started barking downstairs so I was a bit more distracted than I expected, though I do still feel fairly confident in most of my answers. ",2320196.7,"no_change","same","catch_shape_no_change3",0.803907334,"lr",1,1,"none"
"73","shape1","concave_nofill_area2",8,72,"same",7,45251.1,"558980cdfdf99b7ae47f5a75","ducktruck","control",2127077.7,"611a8cbde46ef77ccdf8b0c1","611abc2dcbd349bae6b453c2","Chrome",92,761,1453,1440,2560,"q"," -- select an option -- ",NA,"Looking at two photos of unusual shapes & trying to detect if there was a change between the two objects. ","Determining if people could detect a change in objects when shown similar ones in rapid succession.","Everything went well though I do want to mention there were a couple of times my dog started barking downstairs so I was a bit more distracted than I expected, though I do still feel fairly confident in most of my answers. ",2320196.7,"concave_nofill_area2","different","shape1_concave_nofill_area2",NA,"",0,1,"concave_nofill"
"74","shape8","concave_nofill_area2",8,73,"different",9,1525.6,"558980cdfdf99b7ae47f5a75","ducktruck","control",2127077.7,"611a8cbde46ef77ccdf8b0c1","611abc2dcbd349bae6b453c2","Chrome",92,761,1453,1440,2560,"q"," -- select an option -- ",NA,"Looking at two photos of unusual shapes & trying to detect if there was a change between the two objects. ","Determining if people could detect a change in objects when shown similar ones in rapid succession.","Everything went well though I do want to mention there were a couple of times my dog started barking downstairs so I was a bit more distracted than I expected, though I do still feel fairly confident in most of my answers. ",2320196.7,"concave_nofill_area2","different","shape8_concave_nofill_area2",NA,"",1,1,"concave_nofill"
"75","shape6","no_change3",8,74,"same",9,802.9,"558980cdfdf99b7ae47f5a75","ducktruck","control",2127077.7,"611a8cbde46ef77ccdf8b0c1","611abc2dcbd349bae6b453c2","Chrome",92,761,1453,1440,2560,"q"," -- select an option -- ",NA,"Looking at two photos of unusual shapes & trying to detect if there was a change between the two objects. ","Determining if people could detect a change in objects when shown similar ones in rapid succession.","Everything went well though I do want to mention there were a couple of times my dog started barking downstairs so I was a bit more distracted than I expected, though I do still feel fairly confident in most of my answers. ",2320196.7,"no_change","same","shape6_no_change3",0.472023106,"rl",1,1,"none"
"76","shape7","no_change5",8,75,"same",9,869.3,"558980cdfdf99b7ae47f5a75","ducktruck","control",2127077.7,"611a8cbde46ef77ccdf8b0c1","611abc2dcbd349bae6b453c2","Chrome",92,761,1453,1440,2560,"q"," -- select an option -- ",NA,"Looking at two photos of unusual shapes & trying to detect if there was a change between the two objects. ","Determining if people could detect a change in objects when shown similar ones in rapid succession.","Everything went well though I do want to mention there were a couple of times my dog started barking downstairs so I was a bit more distracted than I expected, though I do still feel fairly confident in most of my answers. ",2320196.7,"no_change","same","shape7_no_change5",0.893268137,"rl",1,1,"none"
"77","shape2","concave_nofill_area1",8,76,"different",9,1430,"558980cdfdf99b7ae47f5a75","ducktruck","control",2127077.7,"611a8cbde46ef77ccdf8b0c1","611abc2dcbd349bae6b453c2","Chrome",92,761,1453,1440,2560,"q"," -- select an option -- ",NA,"Looking at two photos of unusual shapes & trying to detect if there was a change between the two objects. ","Determining if people could detect a change in objects when shown similar ones in rapid succession.","Everything went well though I do want to mention there were a couple of times my dog started barking downstairs so I was a bit more distracted than I expected, though I do still feel fairly confident in most of my answers. ",2320196.7,"concave_nofill_area1","different","shape2_concave_nofill_area1",NA,"",1,1,"concave_nofill"
"78","shape3","concave_nofill_area2",8,77,"different",9,1648.5,"558980cdfdf99b7ae47f5a75","ducktruck","control",2127077.7,"611a8cbde46ef77ccdf8b0c1","611abc2dcbd349bae6b453c2","Chrome",92,761,1453,1440,2560,"q"," -- select an option -- ",NA,"Looking at two photos of unusual shapes & trying to detect if there was a change between the two objects. ","Determining if people could detect a change in objects when shown similar ones in rapid succession.","Everything went well though I do want to mention there were a couple of times my dog started barking downstairs so I was a bit more distracted than I expected, though I do still feel fairly confident in most of my answers. ",2320196.7,"concave_nofill_area2","different","shape3_concave_nofill_area2",NA,"",1,1,"concave_nofill"
"79","catch_shape","change4",8,78,"same",1,37033.6,"558980cdfdf99b7ae47f5a75","ducktruck","control",2127077.7,"611a8cbde46ef77ccdf8b0c1","611abc2dcbd349bae6b453c2","Chrome",92,761,1453,1440,2560,"q"," -- select an option -- ",NA,"Looking at two photos of unusual shapes & trying to detect if there was a change between the two objects. ","Determining if people could detect a change in objects when shown similar ones in rapid succession.","Everything went well though I do want to mention there were a couple of times my dog started barking downstairs so I was a bit more distracted than I expected, though I do still feel fairly confident in most of my answers. ",2320196.7,"change4","different","catch_shape_change4",0.056940257,"rl",0,1,"none"
"80","shape5","concave_nofill_area2",8,79,"different",9,2102.9,"558980cdfdf99b7ae47f5a75","ducktruck","control",2127077.7,"611a8cbde46ef77ccdf8b0c1","611abc2dcbd349bae6b453c2","Chrome",92,761,1453,1440,2560,"q"," -- select an option -- ",NA,"Looking at two photos of unusual shapes & trying to detect if there was a change between the two objects. ","Determining if people could detect a change in objects when shown similar ones in rapid succession.","Everything went well though I do want to mention there were a couple of times my dog started barking downstairs so I was a bit more distracted than I expected, though I do still feel fairly confident in most of my answers. ",2320196.7,"concave_nofill_area2","different","shape5_concave_nofill_area2",NA,"",1,1,"concave_nofill"
"81","shape4","concave_area2",8,80,"different",9,2045.2,"558980cdfdf99b7ae47f5a75","ducktruck","control",2127077.7,"611a8cbde46ef77ccdf8b0c1","611abc2dcbd349bae6b453c2","Chrome",92,761,1453,1440,2560,"q"," -- select an option -- ",NA,"Looking at two photos of unusual shapes & trying to detect if there was a change between the two objects. ","Determining if people could detect a change in objects when shown similar ones in rapid succession.","Everything went well though I do want to mention there were a couple of times my dog started barking downstairs so I was a bit more distracted than I expected, though I do still feel fairly confident in most of my answers. ",2320196.7,"concave_area2","different","shape4_concave_area2",NA,"",1,1,"concave"
"82","shape4","no_change5",9,81,"same",9,2219.3,"558980cdfdf99b7ae47f5a75","ducktruck","control",2127077.7,"611a8cbde46ef77ccdf8b0c1","611abc2dcbd349bae6b453c2","Chrome",92,761,1453,1440,2560,"q"," -- select an option -- ",NA,"Looking at two photos of unusual shapes & trying to detect if there was a change between the two objects. ","Determining if people could detect a change in objects when shown similar ones in rapid succession.","Everything went well though I do want to mention there were a couple of times my dog started barking downstairs so I was a bit more distracted than I expected, though I do still feel fairly confident in most of my answers. ",2320196.7,"no_change","same","shape4_no_change5",0.335320258,"lr",1,1,"none"
"83","shape3","concave_area1",9,82,"different",8,1850.9,"558980cdfdf99b7ae47f5a75","ducktruck","control",2127077.7,"611a8cbde46ef77ccdf8b0c1","611abc2dcbd349bae6b453c2","Chrome",92,761,1453,1440,2560,"q"," -- select an option -- ",NA,"Looking at two photos of unusual shapes & trying to detect if there was a change between the two objects. ","Determining if people could detect a change in objects when shown similar ones in rapid succession.","Everything went well though I do want to mention there were a couple of times my dog started barking downstairs so I was a bit more distracted than I expected, though I do still feel fairly confident in most of my answers. ",2320196.7,"concave_area1","different","shape3_concave_area1",NA,"",1,1,"concave"
"84","shape5","convex_area1",9,83,"different",9,1591.5,"558980cdfdf99b7ae47f5a75","ducktruck","control",2127077.7,"611a8cbde46ef77ccdf8b0c1","611abc2dcbd349bae6b453c2","Chrome",92,761,1453,1440,2560,"q"," -- select an option -- ",NA,"Looking at two photos of unusual shapes & trying to detect if there was a change between the two objects. ","Determining if people could detect a change in objects when shown similar ones in rapid succession.","Everything went well though I do want to mention there were a couple of times my dog started barking downstairs so I was a bit more distracted than I expected, though I do still feel fairly confident in most of my answers. ",2320196.7,"convex_area1","different","shape5_convex_area1",NA,"",1,1,"convex"
"85","shape1","no_change3",9,84,"same",7,1806.1,"558980cdfdf99b7ae47f5a75","ducktruck","control",2127077.7,"611a8cbde46ef77ccdf8b0c1","611abc2dcbd349bae6b453c2","Chrome",92,761,1453,1440,2560,"q"," -- select an option -- ",NA,"Looking at two photos of unusual shapes & trying to detect if there was a change between the two objects. ","Determining if people could detect a change in objects when shown similar ones in rapid succession.","Everything went well though I do want to mention there were a couple of times my dog started barking downstairs so I was a bit more distracted than I expected, though I do still feel fairly confident in most of my answers. ",2320196.7,"no_change","same","shape1_no_change3",0.397507446,"lr",1,1,"none"
"86","shape6","convex_area2",9,85,"different",9,2361.3,"558980cdfdf99b7ae47f5a75","ducktruck","control",2127077.7,"611a8cbde46ef77ccdf8b0c1","611abc2dcbd349bae6b453c2","Chrome",92,761,1453,1440,2560,"q"," -- select an option -- ",NA,"Looking at two photos of unusual shapes & trying to detect if there was a change between the two objects. ","Determining if people could detect a change in objects when shown similar ones in rapid succession.","Everything went well though I do want to mention there were a couple of times my dog started barking downstairs so I was a bit more distracted than I expected, though I do still feel fairly confident in most of my answers. ",2320196.7,"convex_area2","different","shape6_convex_area2",NA,"",1,1,"convex"
"87","shape8","convex_area2",9,86,"different",9,2097.3,"558980cdfdf99b7ae47f5a75","ducktruck","control",2127077.7,"611a8cbde46ef77ccdf8b0c1","611abc2dcbd349bae6b453c2","Chrome",92,761,1453,1440,2560,"q"," -- select an option -- ",NA,"Looking at two photos of unusual shapes & trying to detect if there was a change between the two objects. ","Determining if people could detect a change in objects when shown similar ones in rapid succession.","Everything went well though I do want to mention there were a couple of times my dog started barking downstairs so I was a bit more distracted than I expected, though I do still feel fairly confident in most of my answers. ",2320196.7,"convex_area2","different","shape8_convex_area2",NA,"",1,1,"convex"
"88","shape7","no_change1",9,87,"different",6,4500.1,"558980cdfdf99b7ae47f5a75","ducktruck","control",2127077.7,"611a8cbde46ef77ccdf8b0c1","611abc2dcbd349bae6b453c2","Chrome",92,761,1453,1440,2560,"q"," -- select an option -- ",NA,"Looking at two photos of unusual shapes & trying to detect if there was a change between the two objects. ","Determining if people could detect a change in objects when shown similar ones in rapid succession.","Everything went well though I do want to mention there were a couple of times my dog started barking downstairs so I was a bit more distracted than I expected, though I do still feel fairly confident in most of my answers. ",2320196.7,"no_change","same","shape7_no_change1",0.787509048,"lr",0,1,"none"
"89","catch_shape","change6",9,88,"different",9,3054.8,"558980cdfdf99b7ae47f5a75","ducktruck","control",2127077.7,"611a8cbde46ef77ccdf8b0c1","611abc2dcbd349bae6b453c2","Chrome",92,761,1453,1440,2560,"q"," -- select an option -- ",NA,"Looking at two photos of unusual shapes & trying to detect if there was a change between the two objects. ","Determining if people could detect a change in objects when shown similar ones in rapid succession.","Everything went well though I do want to mention there were a couple of times my dog started barking downstairs so I was a bit more distracted than I expected, though I do still feel fairly confident in most of my answers. ",2320196.7,"change6","different","catch_shape_change6",0.343027212,"rl",1,1,"none"
"90","shape2","no_change4",9,89,"same",8,2416.2,"558980cdfdf99b7ae47f5a75","ducktruck","control",2127077.7,"611a8cbde46ef77ccdf8b0c1","611abc2dcbd349bae6b453c2","Chrome",92,761,1453,1440,2560,"q"," -- select an option -- ",NA,"Looking at two photos of unusual shapes & trying to detect if there was a change between the two objects. ","Determining if people could detect a change in objects when shown similar ones in rapid succession.","Everything went well though I do want to mention there were a couple of times my dog started barking downstairs so I was a bit more distracted than I expected, though I do still feel fairly confident in most of my answers. ",2320196.7,"no_change","same","shape2_no_change4",0.002296296,"lr",1,1,"none"
"91","shape5","no_change3",10,90,"same",9,2261.8,"558980cdfdf99b7ae47f5a75","ducktruck","control",2127077.7,"611a8cbde46ef77ccdf8b0c1","611abc2dcbd349bae6b453c2","Chrome",92,761,1453,1440,2560,"q"," -- select an option -- ",NA,"Looking at two photos of unusual shapes & trying to detect if there was a change between the two objects. ","Determining if people could detect a change in objects when shown similar ones in rapid succession.","Everything went well though I do want to mention there were a couple of times my dog started barking downstairs so I was a bit more distracted than I expected, though I do still feel fairly confident in most of my answers. ",2320196.7,"no_change","same","shape5_no_change3",0.942417861,"lr",1,1,"none"
"92","shape4","no_change6",10,91,"different",6,2309.5,"558980cdfdf99b7ae47f5a75","ducktruck","control",2127077.7,"611a8cbde46ef77ccdf8b0c1","611abc2dcbd349bae6b453c2","Chrome",92,761,1453,1440,2560,"q"," -- select an option -- ",NA,"Looking at two photos of unusual shapes & trying to detect if there was a change between the two objects. ","Determining if people could detect a change in objects when shown similar ones in rapid succession.","Everything went well though I do want to mention there were a couple of times my dog started barking downstairs so I was a bit more distracted than I expected, though I do still feel fairly confident in most of my answers. ",2320196.7,"no_change","same","shape4_no_change6",0.175847481,"lr",0,1,"none"
"93","catch_shape","no_change6",10,92,"same",9,2973.6,"558980cdfdf99b7ae47f5a75","ducktruck","control",2127077.7,"611a8cbde46ef77ccdf8b0c1","611abc2dcbd349bae6b453c2","Chrome",92,761,1453,1440,2560,"q"," -- select an option -- ",NA,"Looking at two photos of unusual shapes & trying to detect if there was a change between the two objects. ","Determining if people could detect a change in objects when shown similar ones in rapid succession.","Everything went well though I do want to mention there were a couple of times my dog started barking downstairs so I was a bit more distracted than I expected, though I do still feel fairly confident in most of my answers. ",2320196.7,"no_change","same","catch_shape_no_change6",0.889778715,"rl",1,1,"none"
"94","shape6","concave_area1",10,93,"different",9,1462.8,"558980cdfdf99b7ae47f5a75","ducktruck","control",2127077.7,"611a8cbde46ef77ccdf8b0c1","611abc2dcbd349bae6b453c2","Chrome",92,761,1453,1440,2560,"q"," -- select an option -- ",NA,"Looking at two photos of unusual shapes & trying to detect if there was a change between the two objects. ","Determining if people could detect a change in objects when shown similar ones in rapid succession.","Everything went well though I do want to mention there were a couple of times my dog started barking downstairs so I was a bit more distracted than I expected, though I do still feel fairly confident in most of my answers. ",2320196.7,"concave_area1","different","shape6_concave_area1",NA,"",1,1,"concave"
"95","shape3","no_change4",10,94,"same",7,1538.5,"558980cdfdf99b7ae47f5a75","ducktruck","control",2127077.7,"611a8cbde46ef77ccdf8b0c1","611abc2dcbd349bae6b453c2","Chrome",92,761,1453,1440,2560,"q"," -- select an option -- ",NA,"Looking at two photos of unusual shapes & trying to detect if there was a change between the two objects. ","Determining if people could detect a change in objects when shown similar ones in rapid succession.","Everything went well though I do want to mention there were a couple of times my dog started barking downstairs so I was a bit more distracted than I expected, though I do still feel fairly confident in most of my answers. ",2320196.7,"no_change","same","shape3_no_change4",0.391097566,"rl",1,1,"none"
"96","shape8","no_change6",10,95,"same",9,1230.6,"558980cdfdf99b7ae47f5a75","ducktruck","control",2127077.7,"611a8cbde46ef77ccdf8b0c1","611abc2dcbd349bae6b453c2","Chrome",92,761,1453,1440,2560,"q"," -- select an option -- ",NA,"Looking at two photos of unusual shapes & trying to detect if there was a change between the two objects. ","Determining if people could detect a change in objects when shown similar ones in rapid succession.","Everything went well though I do want to mention there were a couple of times my dog started barking downstairs so I was a bit more distracted than I expected, though I do still feel fairly confident in most of my answers. ",2320196.7,"no_change","same","shape8_no_change6",0.33963891,"lr",1,1,"none"
"97","shape7","concave_nofill_area2",10,96,"different",9,2830.2,"558980cdfdf99b7ae47f5a75","ducktruck","control",2127077.7,"611a8cbde46ef77ccdf8b0c1","611abc2dcbd349bae6b453c2","Chrome",92,761,1453,1440,2560,"q"," -- select an option -- ",NA,"Looking at two photos of unusual shapes & trying to detect if there was a change between the two objects. ","Determining if people could detect a change in objects when shown similar ones in rapid succession.","Everything went well though I do want to mention there were a couple of times my dog started barking downstairs so I was a bit more distracted than I expected, though I do still feel fairly confident in most of my answers. ",2320196.7,"concave_nofill_area2","different","shape7_concave_nofill_area2",NA,"",1,1,"concave_nofill"
"98","shape2","concave_area1",10,97,"different",9,2862.5,"558980cdfdf99b7ae47f5a75","ducktruck","control",2127077.7,"611a8cbde46ef77ccdf8b0c1","611abc2dcbd349bae6b453c2","Chrome",92,761,1453,1440,2560,"q"," -- select an option -- ",NA,"Looking at two photos of unusual shapes & trying to detect if there was a change between the two objects. ","Determining if people could detect a change in objects when shown similar ones in rapid succession.","Everything went well though I do want to mention there were a couple of times my dog started barking downstairs so I was a bit more distracted than I expected, though I do still feel fairly confident in most of my answers. ",2320196.7,"concave_area1","different","shape2_concave_area1",NA,"",1,1,"concave"
"99","shape1","concave_nofill_area1",10,98,"different",9,2518.1,"558980cdfdf99b7ae47f5a75","ducktruck","control",2127077.7,"611a8cbde46ef77ccdf8b0c1","611abc2dcbd349bae6b453c2","Chrome",92,761,1453,1440,2560,"q"," -- select an option -- ",NA,"Looking at two photos of unusual shapes & trying to detect if there was a change between the two objects. ","Determining if people could detect a change in objects when shown similar ones in rapid succession.","Everything went well though I do want to mention there were a couple of times my dog started barking downstairs so I was a bit more distracted than I expected, though I do still feel fairly confident in most of my answers. ",2320196.7,"concave_nofill_area1","different","shape1_concave_nofill_area1",NA,"",1,1,"concave_nofill"
"100","shape7","concave_area1",11,99,"different",9,2841.1,"558980cdfdf99b7ae47f5a75","ducktruck","control",2127077.7,"611a8cbde46ef77ccdf8b0c1","611abc2dcbd349bae6b453c2","Chrome",92,761,1453,1440,2560,"q"," -- select an option -- ",NA,"Looking at two photos of unusual shapes & trying to detect if there was a change between the two objects. ","Determining if people could detect a change in objects when shown similar ones in rapid succession.","Everything went well though I do want to mention there were a couple of times my dog started barking downstairs so I was a bit more distracted than I expected, though I do still feel fairly confident in most of my answers. ",2320196.7,"concave_area1","different","shape7_concave_area1",NA,"",1,1,"concave"
"101","shape6","no_change5",11,100,"same",9,1634.3,"558980cdfdf99b7ae47f5a75","ducktruck","control",2127077.7,"611a8cbde46ef77ccdf8b0c1","611abc2dcbd349bae6b453c2","Chrome",92,761,1453,1440,2560,"q"," -- select an option -- ",NA,"Looking at two photos of unusual shapes & trying to detect if there was a change between the two objects. ","Determining if people could detect a change in objects when shown similar ones in rapid succession.","Everything went well though I do want to mention there were a couple of times my dog started barking downstairs so I was a bit more distracted than I expected, though I do still feel fairly confident in most of my answers. ",2320196.7,"no_change","same","shape6_no_change5",0.109930511,"lr",1,1,"none"
"102","shape4","no_change2",11,101,"same",6,5026.9,"558980cdfdf99b7ae47f5a75","ducktruck","control",2127077.7,"611a8cbde46ef77ccdf8b0c1","611abc2dcbd349bae6b453c2","Chrome",92,761,1453,1440,2560,"q"," -- select an option -- ",NA,"Looking at two photos of unusual shapes & trying to detect if there was a change between the two objects. ","Determining if people could detect a change in objects when shown similar ones in rapid succession.","Everything went well though I do want to mention there were a couple of times my dog started barking downstairs so I was a bit more distracted than I expected, though I do still feel fairly confident in most of my answers. ",2320196.7,"no_change","same","shape4_no_change2",0.546234004,"rl",1,1,"none"
"103","shape8","no_change2",11,102,"same",9,1470.3,"558980cdfdf99b7ae47f5a75","ducktruck","control",2127077.7,"611a8cbde46ef77ccdf8b0c1","611abc2dcbd349bae6b453c2","Chrome",92,761,1453,1440,2560,"q"," -- select an option -- ",NA,"Looking at two photos of unusual shapes & trying to detect if there was a change between the two objects. ","Determining if people could detect a change in objects when shown similar ones in rapid succession.","Everything went well though I do want to mention there were a couple of times my dog started barking downstairs so I was a bit more distracted than I expected, though I do still feel fairly confident in most of my answers. ",2320196.7,"no_change","same","shape8_no_change2",0.967180073,"rl",1,1,"none"
"104","shape3","concave_area2",11,103,"different",9,1739.4,"558980cdfdf99b7ae47f5a75","ducktruck","control",2127077.7,"611a8cbde46ef77ccdf8b0c1","611abc2dcbd349bae6b453c2","Chrome",92,761,1453,1440,2560,"q"," -- select an option -- ",NA,"Looking at two photos of unusual shapes & trying to detect if there was a change between the two objects. ","Determining if people could detect a change in objects when shown similar ones in rapid succession.","Everything went well though I do want to mention there were a couple of times my dog started barking downstairs so I was a bit more distracted than I expected, though I do still feel fairly confident in most of my answers. ",2320196.7,"concave_area2","different","shape3_concave_area2",NA,"",1,1,"concave"
"105","catch_shape","change5",11,104,"different",9,2014,"558980cdfdf99b7ae47f5a75","ducktruck","control",2127077.7,"611a8cbde46ef77ccdf8b0c1","611abc2dcbd349bae6b453c2","Chrome",92,761,1453,1440,2560,"q"," -- select an option -- ",NA,"Looking at two photos of unusual shapes & trying to detect if there was a change between the two objects. ","Determining if people could detect a change in objects when shown similar ones in rapid succession.","Everything went well though I do want to mention there were a couple of times my dog started barking downstairs so I was a bit more distracted than I expected, though I do still feel fairly confident in most of my answers. ",2320196.7,"change5","different","catch_shape_change5",0.224357715,"rl",1,1,"none"
"106","shape2","concave_area2",11,105,"different",9,1966.1,"558980cdfdf99b7ae47f5a75","ducktruck","control",2127077.7,"611a8cbde46ef77ccdf8b0c1","611abc2dcbd349bae6b453c2","Chrome",92,761,1453,1440,2560,"q"," -- select an option -- ",NA,"Looking at two photos of unusual shapes & trying to detect if there was a change between the two objects. ","Determining if people could detect a change in objects when shown similar ones in rapid succession.","Everything went well though I do want to mention there were a couple of times my dog started barking downstairs so I was a bit more distracted than I expected, though I do still feel fairly confident in most of my answers. ",2320196.7,"concave_area2","different","shape2_concave_area2",NA,"",1,1,"concave"
"107","shape1","convex_area1",11,106,"different",9,2310.8,"558980cdfdf99b7ae47f5a75","ducktruck","control",2127077.7,"611a8cbde46ef77ccdf8b0c1","611abc2dcbd349bae6b453c2","Chrome",92,761,1453,1440,2560,"q"," -- select an option -- ",NA,"Looking at two photos of unusual shapes & trying to detect if there was a change between the two objects. ","Determining if people could detect a change in objects when shown similar ones in rapid succession.","Everything went well though I do want to mention there were a couple of times my dog started barking downstairs so I was a bit more distracted than I expected, though I do still feel fairly confident in most of my answers. ",2320196.7,"convex_area1","different","shape1_convex_area1",NA,"",1,1,"convex"
"108","shape5","convex_area2",11,107,"different",9,2700.2,"558980cdfdf99b7ae47f5a75","ducktruck","control",2127077.7,"611a8cbde46ef77ccdf8b0c1","611abc2dcbd349bae6b453c2","Chrome",92,761,1453,1440,2560,"q"," -- select an option -- ",NA,"Looking at two photos of unusual shapes & trying to detect if there was a change between the two objects. ","Determining if people could detect a change in objects when shown similar ones in rapid succession.","Everything went well though I do want to mention there were a couple of times my dog started barking downstairs so I was a bit more distracted than I expected, though I do still feel fairly confident in most of my answers. ",2320196.7,"convex_area2","different","shape5_convex_area2",NA,"",1,1,"convex"
"109","shape7","no_change1",0,0,"same",9,3688,"572f676f3c27e7000d0b3f9b","ducktruck","control",1367601.6,"611a8cbde46ef77ccdf8b0c1","611a9f42a0a7638c0facf99f","Chrome",92,610,1275,727,1291,"q"," -- select an option -- ",NA,"I was tasked with determining if two objects that briefly appeared on the screen were identical or if there were any differences between them. I was instructed to press 'Q' if the objects were the same and 'P' if I detected any differences.","I think the purpose of the study was to determine how people process differences between options and make split second decisions. I also believe the study may have been studying if ""correct"" decisions that you are confident in affect how you make future decisions.","Everything worked fine.",1398258.4,"no_change","same","shape7_no_change1",0.787509048,"lr",1,1,"none"
"110","shape8","concave_nofill_area2",0,1,"same",6,2591.7,"572f676f3c27e7000d0b3f9b","ducktruck","control",1367601.6,"611a8cbde46ef77ccdf8b0c1","611a9f42a0a7638c0facf99f","Chrome",92,610,1275,727,1291,"q"," -- select an option -- ",NA,"I was tasked with determining if two objects that briefly appeared on the screen were identical or if there were any differences between them. I was instructed to press 'Q' if the objects were the same and 'P' if I detected any differences.","I think the purpose of the study was to determine how people process differences between options and make split second decisions. I also believe the study may have been studying if ""correct"" decisions that you are confident in affect how you make future decisions.","Everything worked fine.",1398258.4,"concave_nofill_area2","different","shape8_concave_nofill_area2",NA,"",0,1,"concave_nofill"
"111","shape1","concave_area2",0,2,"same",5,2202.9,"572f676f3c27e7000d0b3f9b","ducktruck","control",1367601.6,"611a8cbde46ef77ccdf8b0c1","611a9f42a0a7638c0facf99f","Chrome",92,610,1275,727,1291,"q"," -- select an option -- ",NA,"I was tasked with determining if two objects that briefly appeared on the screen were identical or if there were any differences between them. I was instructed to press 'Q' if the objects were the same and 'P' if I detected any differences.","I think the purpose of the study was to determine how people process differences between options and make split second decisions. I also believe the study may have been studying if ""correct"" decisions that you are confident in affect how you make future decisions.","Everything worked fine.",1398258.4,"concave_area2","different","shape1_concave_area2",NA,"",0,1,"concave"
"112","shape6","no_change4",0,3,"same",7,1914.5,"572f676f3c27e7000d0b3f9b","ducktruck","control",1367601.6,"611a8cbde46ef77ccdf8b0c1","611a9f42a0a7638c0facf99f","Chrome",92,610,1275,727,1291,"q"," -- select an option -- ",NA,"I was tasked with determining if two objects that briefly appeared on the screen were identical or if there were any differences between them. I was instructed to press 'Q' if the objects were the same and 'P' if I detected any differences.","I think the purpose of the study was to determine how people process differences between options and make split second decisions. I also believe the study may have been studying if ""correct"" decisions that you are confident in affect how you make future decisions.","Everything worked fine.",1398258.4,"no_change","same","shape6_no_change4",0.964328177,"lr",1,1,"none"
"113","shape2","concave_area1",0,4,"different",7,1963.5,"572f676f3c27e7000d0b3f9b","ducktruck","control",1367601.6,"611a8cbde46ef77ccdf8b0c1","611a9f42a0a7638c0facf99f","Chrome",92,610,1275,727,1291,"q"," -- select an option -- ",NA,"I was tasked with determining if two objects that briefly appeared on the screen were identical or if there were any differences between them. I was instructed to press 'Q' if the objects were the same and 'P' if I detected any differences.","I think the purpose of the study was to determine how people process differences between options and make split second decisions. I also believe the study may have been studying if ""correct"" decisions that you are confident in affect how you make future decisions.","Everything worked fine.",1398258.4,"concave_area1","different","shape2_concave_area1",NA,"",1,1,"concave"
"114","shape3","no_change6",0,5,"same",6,1967.3,"572f676f3c27e7000d0b3f9b","ducktruck","control",1367601.6,"611a8cbde46ef77ccdf8b0c1","611a9f42a0a7638c0facf99f","Chrome",92,610,1275,727,1291,"q"," -- select an option -- ",NA,"I was tasked with determining if two objects that briefly appeared on the screen were identical or if there were any differences between them. I was instructed to press 'Q' if the objects were the same and 'P' if I detected any differences.","I think the purpose of the study was to determine how people process differences between options and make split second decisions. I also believe the study may have been studying if ""correct"" decisions that you are confident in affect how you make future decisions.","Everything worked fine.",1398258.4,"no_change","same","shape3_no_change6",0.201307988,"rl",1,1,"none"
"115","catch_shape","no_change1",0,6,"same",9,2020,"572f676f3c27e7000d0b3f9b","ducktruck","control",1367601.6,"611a8cbde46ef77ccdf8b0c1","611a9f42a0a7638c0facf99f","Chrome",92,610,1275,727,1291,"q"," -- select an option -- ",NA,"I was tasked with determining if two objects that briefly appeared on the screen were identical or if there were any differences between them. I was instructed to press 'Q' if the objects were the same and 'P' if I detected any differences.","I think the purpose of the study was to determine how people process differences between options and make split second decisions. I also believe the study may have been studying if ""correct"" decisions that you are confident in affect how you make future decisions.","Everything worked fine.",1398258.4,"no_change","same","catch_shape_no_change1",0.953456641,"lr",1,1,"none"
"116","shape4","convex_area2",0,7,"different",4,2030.4,"572f676f3c27e7000d0b3f9b","ducktruck","control",1367601.6,"611a8cbde46ef77ccdf8b0c1","611a9f42a0a7638c0facf99f","Chrome",92,610,1275,727,1291,"q"," -- select an option -- ",NA,"I was tasked with determining if two objects that briefly appeared on the screen were identical or if there were any differences between them. I was instructed to press 'Q' if the objects were the same and 'P' if I detected any differences.","I think the purpose of the study was to determine how people process differences between options and make split second decisions. I also believe the study may have been studying if ""correct"" decisions that you are confident in affect how you make future decisions.","Everything worked fine.",1398258.4,"convex_area2","different","shape4_convex_area2",NA,"",1,1,"convex"
"117","shape5","no_change1",0,8,"same",7,3485.8,"572f676f3c27e7000d0b3f9b","ducktruck","control",1367601.6,"611a8cbde46ef77ccdf8b0c1","611a9f42a0a7638c0facf99f","Chrome",92,610,1275,727,1291,"q"," -- select an option -- ",NA,"I was tasked with determining if two objects that briefly appeared on the screen were identical or if there were any differences between them. I was instructed to press 'Q' if the objects were the same and 'P' if I detected any differences.","I think the purpose of the study was to determine how people process differences between options and make split second decisions. I also believe the study may have been studying if ""correct"" decisions that you are confident in affect how you make future decisions.","Everything worked fine.",1398258.4,"no_change","same","shape5_no_change1",0.881336101,"lr",1,1,"none"
"118","shape5","no_change2",1,9,"different",4,2826.6,"572f676f3c27e7000d0b3f9b","ducktruck","control",1367601.6,"611a8cbde46ef77ccdf8b0c1","611a9f42a0a7638c0facf99f","Chrome",92,610,1275,727,1291,"q"," -- select an option -- ",NA,"I was tasked with determining if two objects that briefly appeared on the screen were identical or if there were any differences between them. I was instructed to press 'Q' if the objects were the same and 'P' if I detected any differences.","I think the purpose of the study was to determine how people process differences between options and make split second decisions. I also believe the study may have been studying if ""correct"" decisions that you are confident in affect how you make future decisions.","Everything worked fine.",1398258.4,"no_change","same","shape5_no_change2",0.185057363,"lr",0,1,"none"
"119","shape2","concave_area2",1,10,"different",9,3737.8,"572f676f3c27e7000d0b3f9b","ducktruck","control",1367601.6,"611a8cbde46ef77ccdf8b0c1","611a9f42a0a7638c0facf99f","Chrome",92,610,1275,727,1291,"q"," -- select an option -- ",NA,"I was tasked with determining if two objects that briefly appeared on the screen were identical or if there were any differences between them. I was instructed to press 'Q' if the objects were the same and 'P' if I detected any differences.","I think the purpose of the study was to determine how people process differences between options and make split second decisions. I also believe the study may have been studying if ""correct"" decisions that you are confident in affect how you make future decisions.","Everything worked fine.",1398258.4,"concave_area2","different","shape2_concave_area2",NA,"",1,1,"concave"
"120","shape6","no_change5",1,11,"same",7,2091.2,"572f676f3c27e7000d0b3f9b","ducktruck","control",1367601.6,"611a8cbde46ef77ccdf8b0c1","611a9f42a0a7638c0facf99f","Chrome",92,610,1275,727,1291,"q"," -- select an option -- ",NA,"I was tasked with determining if two objects that briefly appeared on the screen were identical or if there were any differences between them. I was instructed to press 'Q' if the objects were the same and 'P' if I detected any differences.","I think the purpose of the study was to determine how people process differences between options and make split second decisions. I also believe the study may have been studying if ""correct"" decisions that you are confident in affect how you make future decisions.","Everything worked fine.",1398258.4,"no_change","same","shape6_no_change5",0.109930511,"lr",1,1,"none"
"121","shape3","concave_area2",1,12,"same",9,2456.7,"572f676f3c27e7000d0b3f9b","ducktruck","control",1367601.6,"611a8cbde46ef77ccdf8b0c1","611a9f42a0a7638c0facf99f","Chrome",92,610,1275,727,1291,"q"," -- select an option -- ",NA,"I was tasked with determining if two objects that briefly appeared on the screen were identical or if there were any differences between them. I was instructed to press 'Q' if the objects were the same and 'P' if I detected any differences.","I think the purpose of the study was to determine how people process differences between options and make split second decisions. I also believe the study may have been studying if ""correct"" decisions that you are confident in affect how you make future decisions.","Everything worked fine.",1398258.4,"concave_area2","different","shape3_concave_area2",NA,"",0,1,"concave"
"122","shape7","no_change2",1,13,"same",7,1925.8,"572f676f3c27e7000d0b3f9b","ducktruck","control",1367601.6,"611a8cbde46ef77ccdf8b0c1","611a9f42a0a7638c0facf99f","Chrome",92,610,1275,727,1291,"q"," -- select an option -- ",NA,"I was tasked with determining if two objects that briefly appeared on the screen were identical or if there were any differences between them. I was instructed to press 'Q' if the objects were the same and 'P' if I detected any differences.","I think the purpose of the study was to determine how people process differences between options and make split second decisions. I also believe the study may have been studying if ""correct"" decisions that you are confident in affect how you make future decisions.","Everything worked fine.",1398258.4,"no_change","same","shape7_no_change2",0.548394241,"lr",1,1,"none"
"123","shape4","no_change6",1,14,"same",9,1620.4,"572f676f3c27e7000d0b3f9b","ducktruck","control",1367601.6,"611a8cbde46ef77ccdf8b0c1","611a9f42a0a7638c0facf99f","Chrome",92,610,1275,727,1291,"q"," -- select an option -- ",NA,"I was tasked with determining if two objects that briefly appeared on the screen were identical or if there were any differences between them. I was instructed to press 'Q' if the objects were the same and 'P' if I detected any differences.","I think the purpose of the study was to determine how people process differences between options and make split second decisions. I also believe the study may have been studying if ""correct"" decisions that you are confident in affect how you make future decisions.","Everything worked fine.",1398258.4,"no_change","same","shape4_no_change6",0.175847481,"lr",1,1,"none"
"124","shape1","no_change2",1,15,"same",8,1476.9,"572f676f3c27e7000d0b3f9b","ducktruck","control",1367601.6,"611a8cbde46ef77ccdf8b0c1","611a9f42a0a7638c0facf99f","Chrome",92,610,1275,727,1291,"q"," -- select an option -- ",NA,"I was tasked with determining if two objects that briefly appeared on the screen were identical or if there were any differences between them. I was instructed to press 'Q' if the objects were the same and 'P' if I detected any differences.","I think the purpose of the study was to determine how people process differences between options and make split second decisions. I also believe the study may have been studying if ""correct"" decisions that you are confident in affect how you make future decisions.","Everything worked fine.",1398258.4,"no_change","same","shape1_no_change2",0.149646973,"lr",1,1,"none"
"125","shape8","concave_area1",1,16,"same",7,1854.8,"572f676f3c27e7000d0b3f9b","ducktruck","control",1367601.6,"611a8cbde46ef77ccdf8b0c1","611a9f42a0a7638c0facf99f","Chrome",92,610,1275,727,1291,"q"," -- select an option -- ",NA,"I was tasked with determining if two objects that briefly appeared on the screen were identical or if there were any differences between them. I was instructed to press 'Q' if the objects were the same and 'P' if I detected any differences.","I think the purpose of the study was to determine how people process differences between options and make split second decisions. I also believe the study may have been studying if ""correct"" decisions that you are confident in affect how you make future decisions.","Everything worked fine.",1398258.4,"concave_area1","different","shape8_concave_area1",NA,"",0,1,"concave"
"126","catch_shape","change5",1,17,"different",9,1899.7,"572f676f3c27e7000d0b3f9b","ducktruck","control",1367601.6,"611a8cbde46ef77ccdf8b0c1","611a9f42a0a7638c0facf99f","Chrome",92,610,1275,727,1291,"q"," -- select an option -- ",NA,"I was tasked with determining if two objects that briefly appeared on the screen were identical or if there were any differences between them. I was instructed to press 'Q' if the objects were the same and 'P' if I detected any differences.","I think the purpose of the study was to determine how people process differences between options and make split second decisions. I also believe the study may have been studying if ""correct"" decisions that you are confident in affect how you make future decisions.","Everything worked fine.",1398258.4,"change5","different","catch_shape_change5",0.224357715,"rl",1,1,"none"
"127","shape4","no_change1",2,18,"same",6,2071.2,"572f676f3c27e7000d0b3f9b","ducktruck","control",1367601.6,"611a8cbde46ef77ccdf8b0c1","611a9f42a0a7638c0facf99f","Chrome",92,610,1275,727,1291,"q"," -- select an option -- ",NA,"I was tasked with determining if two objects that briefly appeared on the screen were identical or if there were any differences between them. I was instructed to press 'Q' if the objects were the same and 'P' if I detected any differences.","I think the purpose of the study was to determine how people process differences between options and make split second decisions. I also believe the study may have been studying if ""correct"" decisions that you are confident in affect how you make future decisions.","Everything worked fine.",1398258.4,"no_change","same","shape4_no_change1",0.088270385,"rl",1,1,"none"
"128","shape3","no_change5",2,19,"same",8,2294.9,"572f676f3c27e7000d0b3f9b","ducktruck","control",1367601.6,"611a8cbde46ef77ccdf8b0c1","611a9f42a0a7638c0facf99f","Chrome",92,610,1275,727,1291,"q"," -- select an option -- ",NA,"I was tasked with determining if two objects that briefly appeared on the screen were identical or if there were any differences between them. I was instructed to press 'Q' if the objects were the same and 'P' if I detected any differences.","I think the purpose of the study was to determine how people process differences between options and make split second decisions. I also believe the study may have been studying if ""correct"" decisions that you are confident in affect how you make future decisions.","Everything worked fine.",1398258.4,"no_change","same","shape3_no_change5",0.343132045,"rl",1,1,"none"
"129","shape2","no_change1",2,20,"different",2,2793.8,"572f676f3c27e7000d0b3f9b","ducktruck","control",1367601.6,"611a8cbde46ef77ccdf8b0c1","611a9f42a0a7638c0facf99f","Chrome",92,610,1275,727,1291,"q"," -- select an option -- ",NA,"I was tasked with determining if two objects that briefly appeared on the screen were identical or if there were any differences between them. I was instructed to press 'Q' if the objects were the same and 'P' if I detected any differences.","I think the purpose of the study was to determine how people process differences between options and make split second decisions. I also believe the study may have been studying if ""correct"" decisions that you are confident in affect how you make future decisions.","Everything worked fine.",1398258.4,"no_change","same","shape2_no_change1",0.230009402,"rl",0,1,"none"
