"","shape","changeType","blockNum","trialID","response","confidence","rt","subjectID","experimentName","experimentVersion","experimentTime","studyID","sessionID","browserName","browserVersion","displayWindowHeight","displayWindowWidth","displayScreenHeight","displayScreenWidth","change_key","gender","age","taskGuess","purposeGuess","commentText","totalTime","collapsedChange","correctAnswer","fullShapeName","responded_correctly","count","analysisChangeType"
"1","shape3","no_change2",0,0,"same",9,9077,"55b6a2e5fdf99b350d57360e","ducktruck","v001",1037420,"60e37abdc60a8398fd63c9e4","60ef12f12c286ba9fa30ee2f","Firefox",89,1347,2560,1440,2560,"q"," -- select an option -- ",NA,"Click q if you noticed no change between the shape at the start and at the end, click p if you did notice a change. Rate your confidence level on a scale of 1-9.","To see how good people are at perceiving small changes, maybe based on color, speed between observations. ","Worked fine.",1060291,"no_change","same","shape3_no_change2",1,1,"none"
"2","shape1","no_change1",0,1,"same",9,3606,"55b6a2e5fdf99b350d57360e","ducktruck","v001",1037420,"60e37abdc60a8398fd63c9e4","60ef12f12c286ba9fa30ee2f","Firefox",89,1347,2560,1440,2560,"q"," -- select an option -- ",NA,"Click q if you noticed no change between the shape at the start and at the end, click p if you did notice a change. Rate your confidence level on a scale of 1-9.","To see how good people are at perceiving small changes, maybe based on color, speed between observations. ","Worked fine.",1060291,"no_change","same","shape1_no_change1",1,1,"none"
"3","shape5","no_change3",0,2,"same",8,2494,"55b6a2e5fdf99b350d57360e","ducktruck","v001",1037420,"60e37abdc60a8398fd63c9e4","60ef12f12c286ba9fa30ee2f","Firefox",89,1347,2560,1440,2560,"q"," -- select an option -- ",NA,"Click q if you noticed no change between the shape at the start and at the end, click p if you did notice a change. Rate your confidence level on a scale of 1-9.","To see how good people are at perceiving small changes, maybe based on color, speed between observations. ","Worked fine.",1060291,"no_change","same","shape5_no_change3",1,1,"none"
"4","shape6","no_change1",0,3,"same",8,4671,"55b6a2e5fdf99b350d57360e","ducktruck","v001",1037420,"60e37abdc60a8398fd63c9e4","60ef12f12c286ba9fa30ee2f","Firefox",89,1347,2560,1440,2560,"q"," -- select an option -- ",NA,"Click q if you noticed no change between the shape at the start and at the end, click p if you did notice a change. Rate your confidence level on a scale of 1-9.","To see how good people are at perceiving small changes, maybe based on color, speed between observations. ","Worked fine.",1060291,"no_change","same","shape6_no_change1",1,1,"none"
"5","shape2","no_change2",0,4,"same",8,2797,"55b6a2e5fdf99b350d57360e","ducktruck","v001",1037420,"60e37abdc60a8398fd63c9e4","60ef12f12c286ba9fa30ee2f","Firefox",89,1347,2560,1440,2560,"q"," -- select an option -- ",NA,"Click q if you noticed no change between the shape at the start and at the end, click p if you did notice a change. Rate your confidence level on a scale of 1-9.","To see how good people are at perceiving small changes, maybe based on color, speed between observations. ","Worked fine.",1060291,"no_change","same","shape2_no_change2",1,1,"none"
"6","shape7","no_change3",0,5,"same",8,3221,"55b6a2e5fdf99b350d57360e","ducktruck","v001",1037420,"60e37abdc60a8398fd63c9e4","60ef12f12c286ba9fa30ee2f","Firefox",89,1347,2560,1440,2560,"q"," -- select an option -- ",NA,"Click q if you noticed no change between the shape at the start and at the end, click p if you did notice a change. Rate your confidence level on a scale of 1-9.","To see how good people are at perceiving small changes, maybe based on color, speed between observations. ","Worked fine.",1060291,"no_change","same","shape7_no_change3",1,1,"none"
"7","shape8","no_change3",0,6,"same",9,5870,"55b6a2e5fdf99b350d57360e","ducktruck","v001",1037420,"60e37abdc60a8398fd63c9e4","60ef12f12c286ba9fa30ee2f","Firefox",89,1347,2560,1440,2560,"q"," -- select an option -- ",NA,"Click q if you noticed no change between the shape at the start and at the end, click p if you did notice a change. Rate your confidence level on a scale of 1-9.","To see how good people are at perceiving small changes, maybe based on color, speed between observations. ","Worked fine.",1060291,"no_change","same","shape8_no_change3",1,1,"none"
"8","shape4","no_change4",0,7,"same",8,2919,"55b6a2e5fdf99b350d57360e","ducktruck","v001",1037420,"60e37abdc60a8398fd63c9e4","60ef12f12c286ba9fa30ee2f","Firefox",89,1347,2560,1440,2560,"q"," -- select an option -- ",NA,"Click q if you noticed no change between the shape at the start and at the end, click p if you did notice a change. Rate your confidence level on a scale of 1-9.","To see how good people are at perceiving small changes, maybe based on color, speed between observations. ","Worked fine.",1060291,"no_change","same","shape4_no_change4",1,1,"none"
"9","catch_shape","no_change5",0,8,"same",9,2295,"55b6a2e5fdf99b350d57360e","ducktruck","v001",1037420,"60e37abdc60a8398fd63c9e4","60ef12f12c286ba9fa30ee2f","Firefox",89,1347,2560,1440,2560,"q"," -- select an option -- ",NA,"Click q if you noticed no change between the shape at the start and at the end, click p if you did notice a change. Rate your confidence level on a scale of 1-9.","To see how good people are at perceiving small changes, maybe based on color, speed between observations. ","Worked fine.",1060291,"no_change","same","catch_shape_no_change5",1,1,"none"
"10","shape7","no_change1",1,9,"same",7,5517,"55b6a2e5fdf99b350d57360e","ducktruck","v001",1037420,"60e37abdc60a8398fd63c9e4","60ef12f12c286ba9fa30ee2f","Firefox",89,1347,2560,1440,2560,"q"," -- select an option -- ",NA,"Click q if you noticed no change between the shape at the start and at the end, click p if you did notice a change. Rate your confidence level on a scale of 1-9.","To see how good people are at perceiving small changes, maybe based on color, speed between observations. ","Worked fine.",1060291,"no_change","same","shape7_no_change1",1,1,"none"
"11","shape1","no_change2",1,10,"same",8,2645,"55b6a2e5fdf99b350d57360e","ducktruck","v001",1037420,"60e37abdc60a8398fd63c9e4","60ef12f12c286ba9fa30ee2f","Firefox",89,1347,2560,1440,2560,"q"," -- select an option -- ",NA,"Click q if you noticed no change between the shape at the start and at the end, click p if you did notice a change. Rate your confidence level on a scale of 1-9.","To see how good people are at perceiving small changes, maybe based on color, speed between observations. ","Worked fine.",1060291,"no_change","same","shape1_no_change2",1,1,"none"
"12","shape3","concave_area2",1,11,"same",8,3551,"55b6a2e5fdf99b350d57360e","ducktruck","v001",1037420,"60e37abdc60a8398fd63c9e4","60ef12f12c286ba9fa30ee2f","Firefox",89,1347,2560,1440,2560,"q"," -- select an option -- ",NA,"Click q if you noticed no change between the shape at the start and at the end, click p if you did notice a change. Rate your confidence level on a scale of 1-9.","To see how good people are at perceiving small changes, maybe based on color, speed between observations. ","Worked fine.",1060291,"concave_area2","different","shape3_concave_area2",0,1,"concave"
"13","shape2","no_change6",1,12,"different",7,6142,"55b6a2e5fdf99b350d57360e","ducktruck","v001",1037420,"60e37abdc60a8398fd63c9e4","60ef12f12c286ba9fa30ee2f","Firefox",89,1347,2560,1440,2560,"q"," -- select an option -- ",NA,"Click q if you noticed no change between the shape at the start and at the end, click p if you did notice a change. Rate your confidence level on a scale of 1-9.","To see how good people are at perceiving small changes, maybe based on color, speed between observations. ","Worked fine.",1060291,"no_change","same","shape2_no_change6",0,1,"none"
"14","shape5","no_change5",1,13,"different",7,3935,"55b6a2e5fdf99b350d57360e","ducktruck","v001",1037420,"60e37abdc60a8398fd63c9e4","60ef12f12c286ba9fa30ee2f","Firefox",89,1347,2560,1440,2560,"q"," -- select an option -- ",NA,"Click q if you noticed no change between the shape at the start and at the end, click p if you did notice a change. Rate your confidence level on a scale of 1-9.","To see how good people are at perceiving small changes, maybe based on color, speed between observations. ","Worked fine.",1060291,"no_change","same","shape5_no_change5",0,1,"none"
"15","shape4","no_change6",1,14,"same",8,1830,"55b6a2e5fdf99b350d57360e","ducktruck","v001",1037420,"60e37abdc60a8398fd63c9e4","60ef12f12c286ba9fa30ee2f","Firefox",89,1347,2560,1440,2560,"q"," -- select an option -- ",NA,"Click q if you noticed no change between the shape at the start and at the end, click p if you did notice a change. Rate your confidence level on a scale of 1-9.","To see how good people are at perceiving small changes, maybe based on color, speed between observations. ","Worked fine.",1060291,"no_change","same","shape4_no_change6",1,1,"none"
"16","catch_shape","no_change3",1,15,"same",9,2135,"55b6a2e5fdf99b350d57360e","ducktruck","v001",1037420,"60e37abdc60a8398fd63c9e4","60ef12f12c286ba9fa30ee2f","Firefox",89,1347,2560,1440,2560,"q"," -- select an option -- ",NA,"Click q if you noticed no change between the shape at the start and at the end, click p if you did notice a change. Rate your confidence level on a scale of 1-9.","To see how good people are at perceiving small changes, maybe based on color, speed between observations. ","Worked fine.",1060291,"no_change","same","catch_shape_no_change3",1,1,"none"
"17","shape6","no_change6",1,16,"same",7,4655,"55b6a2e5fdf99b350d57360e","ducktruck","v001",1037420,"60e37abdc60a8398fd63c9e4","60ef12f12c286ba9fa30ee2f","Firefox",89,1347,2560,1440,2560,"q"," -- select an option -- ",NA,"Click q if you noticed no change between the shape at the start and at the end, click p if you did notice a change. Rate your confidence level on a scale of 1-9.","To see how good people are at perceiving small changes, maybe based on color, speed between observations. ","Worked fine.",1060291,"no_change","same","shape6_no_change6",1,1,"none"
"18","shape8","no_change1",1,17,"same",8,2278,"55b6a2e5fdf99b350d57360e","ducktruck","v001",1037420,"60e37abdc60a8398fd63c9e4","60ef12f12c286ba9fa30ee2f","Firefox",89,1347,2560,1440,2560,"q"," -- select an option -- ",NA,"Click q if you noticed no change between the shape at the start and at the end, click p if you did notice a change. Rate your confidence level on a scale of 1-9.","To see how good people are at perceiving small changes, maybe based on color, speed between observations. ","Worked fine.",1060291,"no_change","same","shape8_no_change1",1,1,"none"
"19","shape1","no_change3",2,18,"same",8,3334,"55b6a2e5fdf99b350d57360e","ducktruck","v001",1037420,"60e37abdc60a8398fd63c9e4","60ef12f12c286ba9fa30ee2f","Firefox",89,1347,2560,1440,2560,"q"," -- select an option -- ",NA,"Click q if you noticed no change between the shape at the start and at the end, click p if you did notice a change. Rate your confidence level on a scale of 1-9.","To see how good people are at perceiving small changes, maybe based on color, speed between observations. ","Worked fine.",1060291,"no_change","same","shape1_no_change3",1,1,"none"
"20","shape2","no_change4",2,19,"different",8,2478,"55b6a2e5fdf99b350d57360e","ducktruck","v001",1037420,"60e37abdc60a8398fd63c9e4","60ef12f12c286ba9fa30ee2f","Firefox",89,1347,2560,1440,2560,"q"," -- select an option -- ",NA,"Click q if you noticed no change between the shape at the start and at the end, click p if you did notice a change. Rate your confidence level on a scale of 1-9.","To see how good people are at perceiving small changes, maybe based on color, speed between observations. ","Worked fine.",1060291,"no_change","same","shape2_no_change4",0,1,"none"
"21","shape3","no_change4",2,20,"different",5,2022,"55b6a2e5fdf99b350d57360e","ducktruck","v001",1037420,"60e37abdc60a8398fd63c9e4","60ef12f12c286ba9fa30ee2f","Firefox",89,1347,2560,1440,2560,"q"," -- select an option -- ",NA,"Click q if you noticed no change between the shape at the start and at the end, click p if you did notice a change. Rate your confidence level on a scale of 1-9.","To see how good people are at perceiving small changes, maybe based on color, speed between observations. ","Worked fine.",1060291,"no_change","same","shape3_no_change4",0,1,"none"
"22","shape7","no_change2",2,21,"different",6,2118,"55b6a2e5fdf99b350d57360e","ducktruck","v001",1037420,"60e37abdc60a8398fd63c9e4","60ef12f12c286ba9fa30ee2f","Firefox",89,1347,2560,1440,2560,"q"," -- select an option -- ",NA,"Click q if you noticed no change between the shape at the start and at the end, click p if you did notice a change. Rate your confidence level on a scale of 1-9.","To see how good people are at perceiving small changes, maybe based on color, speed between observations. ","Worked fine.",1060291,"no_change","same","shape7_no_change2",0,1,"none"
"23","shape4","no_change2",2,22,"same",6,2998,"55b6a2e5fdf99b350d57360e","ducktruck","v001",1037420,"60e37abdc60a8398fd63c9e4","60ef12f12c286ba9fa30ee2f","Firefox",89,1347,2560,1440,2560,"q"," -- select an option -- ",NA,"Click q if you noticed no change between the shape at the start and at the end, click p if you did notice a change. Rate your confidence level on a scale of 1-9.","To see how good people are at perceiving small changes, maybe based on color, speed between observations. ","Worked fine.",1060291,"no_change","same","shape4_no_change2",1,1,"none"
"24","shape6","no_change3",2,23,"different",5,3463,"55b6a2e5fdf99b350d57360e","ducktruck","v001",1037420,"60e37abdc60a8398fd63c9e4","60ef12f12c286ba9fa30ee2f","Firefox",89,1347,2560,1440,2560,"q"," -- select an option -- ",NA,"Click q if you noticed no change between the shape at the start and at the end, click p if you did notice a change. Rate your confidence level on a scale of 1-9.","To see how good people are at perceiving small changes, maybe based on color, speed between observations. ","Worked fine.",1060291,"no_change","same","shape6_no_change3",0,1,"none"
"25","shape5","no_change2",2,24,"different",5,2272,"55b6a2e5fdf99b350d57360e","ducktruck","v001",1037420,"60e37abdc60a8398fd63c9e4","60ef12f12c286ba9fa30ee2f","Firefox",89,1347,2560,1440,2560,"q"," -- select an option -- ",NA,"Click q if you noticed no change between the shape at the start and at the end, click p if you did notice a change. Rate your confidence level on a scale of 1-9.","To see how good people are at perceiving small changes, maybe based on color, speed between observations. ","Worked fine.",1060291,"no_change","same","shape5_no_change2",0,1,"none"
"26","catch_shape","no_change2",2,25,"same",8,4007,"55b6a2e5fdf99b350d57360e","ducktruck","v001",1037420,"60e37abdc60a8398fd63c9e4","60ef12f12c286ba9fa30ee2f","Firefox",89,1347,2560,1440,2560,"q"," -- select an option -- ",NA,"Click q if you noticed no change between the shape at the start and at the end, click p if you did notice a change. Rate your confidence level on a scale of 1-9.","To see how good people are at perceiving small changes, maybe based on color, speed between observations. ","Worked fine.",1060291,"no_change","same","catch_shape_no_change2",1,1,"none"
"27","shape8","no_change2",2,26,"different",5,1366,"55b6a2e5fdf99b350d57360e","ducktruck","v001",1037420,"60e37abdc60a8398fd63c9e4","60ef12f12c286ba9fa30ee2f","Firefox",89,1347,2560,1440,2560,"q"," -- select an option -- ",NA,"Click q if you noticed no change between the shape at the start and at the end, click p if you did notice a change. Rate your confidence level on a scale of 1-9.","To see how good people are at perceiving small changes, maybe based on color, speed between observations. ","Worked fine.",1060291,"no_change","same","shape8_no_change2",0,1,"none"
"28","shape2","no_change3",3,27,"different",4,2710,"55b6a2e5fdf99b350d57360e","ducktruck","v001",1037420,"60e37abdc60a8398fd63c9e4","60ef12f12c286ba9fa30ee2f","Firefox",89,1347,2560,1440,2560,"q"," -- select an option -- ",NA,"Click q if you noticed no change between the shape at the start and at the end, click p if you did notice a change. Rate your confidence level on a scale of 1-9.","To see how good people are at perceiving small changes, maybe based on color, speed between observations. ","Worked fine.",1060291,"no_change","same","shape2_no_change3",0,1,"none"
"29","shape4","no_change3",3,28,"same",8,1526,"55b6a2e5fdf99b350d57360e","ducktruck","v001",1037420,"60e37abdc60a8398fd63c9e4","60ef12f12c286ba9fa30ee2f","Firefox",89,1347,2560,1440,2560,"q"," -- select an option -- ",NA,"Click q if you noticed no change between the shape at the start and at the end, click p if you did notice a change. Rate your confidence level on a scale of 1-9.","To see how good people are at perceiving small changes, maybe based on color, speed between observations. ","Worked fine.",1060291,"no_change","same","shape4_no_change3",1,1,"none"
"30","shape7","no_change4",3,29,"different",9,2214,"55b6a2e5fdf99b350d57360e","ducktruck","v001",1037420,"60e37abdc60a8398fd63c9e4","60ef12f12c286ba9fa30ee2f","Firefox",89,1347,2560,1440,2560,"q"," -- select an option -- ",NA,"Click q if you noticed no change between the shape at the start and at the end, click p if you did notice a change. Rate your confidence level on a scale of 1-9.","To see how good people are at perceiving small changes, maybe based on color, speed between observations. ","Worked fine.",1060291,"no_change","same","shape7_no_change4",0,1,"none"
"31","shape5","concave_nofill_area1",3,30,"different",8,1615,"55b6a2e5fdf99b350d57360e","ducktruck","v001",1037420,"60e37abdc60a8398fd63c9e4","60ef12f12c286ba9fa30ee2f","Firefox",89,1347,2560,1440,2560,"q"," -- select an option -- ",NA,"Click q if you noticed no change between the shape at the start and at the end, click p if you did notice a change. Rate your confidence level on a scale of 1-9.","To see how good people are at perceiving small changes, maybe based on color, speed between observations. ","Worked fine.",1060291,"concave_nofill_area1","different","shape5_concave_nofill_area1",1,1,"concave_nofill"
"32","shape6","no_change2",3,31,"same",8,1871,"55b6a2e5fdf99b350d57360e","ducktruck","v001",1037420,"60e37abdc60a8398fd63c9e4","60ef12f12c286ba9fa30ee2f","Firefox",89,1347,2560,1440,2560,"q"," -- select an option -- ",NA,"Click q if you noticed no change between the shape at the start and at the end, click p if you did notice a change. Rate your confidence level on a scale of 1-9.","To see how good people are at perceiving small changes, maybe based on color, speed between observations. ","Worked fine.",1060291,"no_change","same","shape6_no_change2",1,1,"none"
"33","shape8","concave_area1",3,32,"different",8,3814,"55b6a2e5fdf99b350d57360e","ducktruck","v001",1037420,"60e37abdc60a8398fd63c9e4","60ef12f12c286ba9fa30ee2f","Firefox",89,1347,2560,1440,2560,"q"," -- select an option -- ",NA,"Click q if you noticed no change between the shape at the start and at the end, click p if you did notice a change. Rate your confidence level on a scale of 1-9.","To see how good people are at perceiving small changes, maybe based on color, speed between observations. ","Worked fine.",1060291,"concave_area1","different","shape8_concave_area1",1,1,"concave"
"34","catch_shape","change1",3,33,"different",9,1790,"55b6a2e5fdf99b350d57360e","ducktruck","v001",1037420,"60e37abdc60a8398fd63c9e4","60ef12f12c286ba9fa30ee2f","Firefox",89,1347,2560,1440,2560,"q"," -- select an option -- ",NA,"Click q if you noticed no change between the shape at the start and at the end, click p if you did notice a change. Rate your confidence level on a scale of 1-9.","To see how good people are at perceiving small changes, maybe based on color, speed between observations. ","Worked fine.",1060291,"change1","different","catch_shape_change1",1,1,"none"
"35","shape1","no_change4",3,34,"same",8,3286,"55b6a2e5fdf99b350d57360e","ducktruck","v001",1037420,"60e37abdc60a8398fd63c9e4","60ef12f12c286ba9fa30ee2f","Firefox",89,1347,2560,1440,2560,"q"," -- select an option -- ",NA,"Click q if you noticed no change between the shape at the start and at the end, click p if you did notice a change. Rate your confidence level on a scale of 1-9.","To see how good people are at perceiving small changes, maybe based on color, speed between observations. ","Worked fine.",1060291,"no_change","same","shape1_no_change4",1,1,"none"
"36","shape3","no_change1",3,35,"same",9,4422,"55b6a2e5fdf99b350d57360e","ducktruck","v001",1037420,"60e37abdc60a8398fd63c9e4","60ef12f12c286ba9fa30ee2f","Firefox",89,1347,2560,1440,2560,"q"," -- select an option -- ",NA,"Click q if you noticed no change between the shape at the start and at the end, click p if you did notice a change. Rate your confidence level on a scale of 1-9.","To see how good people are at perceiving small changes, maybe based on color, speed between observations. ","Worked fine.",1060291,"no_change","same","shape3_no_change1",1,1,"none"
"37","catch_shape","change4",4,36,"different",9,1917,"55b6a2e5fdf99b350d57360e","ducktruck","v001",1037420,"60e37abdc60a8398fd63c9e4","60ef12f12c286ba9fa30ee2f","Firefox",89,1347,2560,1440,2560,"q"," -- select an option -- ",NA,"Click q if you noticed no change between the shape at the start and at the end, click p if you did notice a change. Rate your confidence level on a scale of 1-9.","To see how good people are at perceiving small changes, maybe based on color, speed between observations. ","Worked fine.",1060291,"change4","different","catch_shape_change4",1,1,"none"
"38","shape6","concave_area1",4,37,"same",8,3647,"55b6a2e5fdf99b350d57360e","ducktruck","v001",1037420,"60e37abdc60a8398fd63c9e4","60ef12f12c286ba9fa30ee2f","Firefox",89,1347,2560,1440,2560,"q"," -- select an option -- ",NA,"Click q if you noticed no change between the shape at the start and at the end, click p if you did notice a change. Rate your confidence level on a scale of 1-9.","To see how good people are at perceiving small changes, maybe based on color, speed between observations. ","Worked fine.",1060291,"concave_area1","different","shape6_concave_area1",0,1,"concave"
"39","shape2","no_change1",4,38,"different",7,1542,"55b6a2e5fdf99b350d57360e","ducktruck","v001",1037420,"60e37abdc60a8398fd63c9e4","60ef12f12c286ba9fa30ee2f","Firefox",89,1347,2560,1440,2560,"q"," -- select an option -- ",NA,"Click q if you noticed no change between the shape at the start and at the end, click p if you did notice a change. Rate your confidence level on a scale of 1-9.","To see how good people are at perceiving small changes, maybe based on color, speed between observations. ","Worked fine.",1060291,"no_change","same","shape2_no_change1",0,1,"none"
"40","shape1","concave_area2",4,39,"same",8,2366,"55b6a2e5fdf99b350d57360e","ducktruck","v001",1037420,"60e37abdc60a8398fd63c9e4","60ef12f12c286ba9fa30ee2f","Firefox",89,1347,2560,1440,2560,"q"," -- select an option -- ",NA,"Click q if you noticed no change between the shape at the start and at the end, click p if you did notice a change. Rate your confidence level on a scale of 1-9.","To see how good people are at perceiving small changes, maybe based on color, speed between observations. ","Worked fine.",1060291,"concave_area2","different","shape1_concave_area2",0,1,"concave"
"41","shape5","no_change1",4,40,"same",9,1717,"55b6a2e5fdf99b350d57360e","ducktruck","v001",1037420,"60e37abdc60a8398fd63c9e4","60ef12f12c286ba9fa30ee2f","Firefox",89,1347,2560,1440,2560,"q"," -- select an option -- ",NA,"Click q if you noticed no change between the shape at the start and at the end, click p if you did notice a change. Rate your confidence level on a scale of 1-9.","To see how good people are at perceiving small changes, maybe based on color, speed between observations. ","Worked fine.",1060291,"no_change","same","shape5_no_change1",1,1,"none"
"42","shape3","convex_area1",4,41,"same",8,2757,"55b6a2e5fdf99b350d57360e","ducktruck","v001",1037420,"60e37abdc60a8398fd63c9e4","60ef12f12c286ba9fa30ee2f","Firefox",89,1347,2560,1440,2560,"q"," -- select an option -- ",NA,"Click q if you noticed no change between the shape at the start and at the end, click p if you did notice a change. Rate your confidence level on a scale of 1-9.","To see how good people are at perceiving small changes, maybe based on color, speed between observations. ","Worked fine.",1060291,"convex_area1","different","shape3_convex_area1",0,1,"convex"
"43","shape4","no_change1",4,42,"same",9,1438,"55b6a2e5fdf99b350d57360e","ducktruck","v001",1037420,"60e37abdc60a8398fd63c9e4","60ef12f12c286ba9fa30ee2f","Firefox",89,1347,2560,1440,2560,"q"," -- select an option -- ",NA,"Click q if you noticed no change between the shape at the start and at the end, click p if you did notice a change. Rate your confidence level on a scale of 1-9.","To see how good people are at perceiving small changes, maybe based on color, speed between observations. ","Worked fine.",1060291,"no_change","same","shape4_no_change1",1,1,"none"
"44","shape7","no_change6",4,43,"same",7,2447,"55b6a2e5fdf99b350d57360e","ducktruck","v001",1037420,"60e37abdc60a8398fd63c9e4","60ef12f12c286ba9fa30ee2f","Firefox",89,1347,2560,1440,2560,"q"," -- select an option -- ",NA,"Click q if you noticed no change between the shape at the start and at the end, click p if you did notice a change. Rate your confidence level on a scale of 1-9.","To see how good people are at perceiving small changes, maybe based on color, speed between observations. ","Worked fine.",1060291,"no_change","same","shape7_no_change6",1,1,"none"
"45","shape8","no_change5",4,44,"same",9,1455,"55b6a2e5fdf99b350d57360e","ducktruck","v001",1037420,"60e37abdc60a8398fd63c9e4","60ef12f12c286ba9fa30ee2f","Firefox",89,1347,2560,1440,2560,"q"," -- select an option -- ",NA,"Click q if you noticed no change between the shape at the start and at the end, click p if you did notice a change. Rate your confidence level on a scale of 1-9.","To see how good people are at perceiving small changes, maybe based on color, speed between observations. ","Worked fine.",1060291,"no_change","same","shape8_no_change5",1,1,"none"
"46","shape2","no_change5",5,45,"different",8,1223,"55b6a2e5fdf99b350d57360e","ducktruck","v001",1037420,"60e37abdc60a8398fd63c9e4","60ef12f12c286ba9fa30ee2f","Firefox",89,1347,2560,1440,2560,"q"," -- select an option -- ",NA,"Click q if you noticed no change between the shape at the start and at the end, click p if you did notice a change. Rate your confidence level on a scale of 1-9.","To see how good people are at perceiving small changes, maybe based on color, speed between observations. ","Worked fine.",1060291,"no_change","same","shape2_no_change5",0,1,"none"
"47","shape1","concave_area1",5,46,"same",8,1910,"55b6a2e5fdf99b350d57360e","ducktruck","v001",1037420,"60e37abdc60a8398fd63c9e4","60ef12f12c286ba9fa30ee2f","Firefox",89,1347,2560,1440,2560,"q"," -- select an option -- ",NA,"Click q if you noticed no change between the shape at the start and at the end, click p if you did notice a change. Rate your confidence level on a scale of 1-9.","To see how good people are at perceiving small changes, maybe based on color, speed between observations. ","Worked fine.",1060291,"concave_area1","different","shape1_concave_area1",0,1,"concave"
"48","shape3","no_change3",5,47,"same",9,1958,"55b6a2e5fdf99b350d57360e","ducktruck","v001",1037420,"60e37abdc60a8398fd63c9e4","60ef12f12c286ba9fa30ee2f","Firefox",89,1347,2560,1440,2560,"q"," -- select an option -- ",NA,"Click q if you noticed no change between the shape at the start and at the end, click p if you did notice a change. Rate your confidence level on a scale of 1-9.","To see how good people are at perceiving small changes, maybe based on color, speed between observations. ","Worked fine.",1060291,"no_change","same","shape3_no_change3",1,1,"none"
"49","shape5","convex_area1",5,48,"different",3,2494,"55b6a2e5fdf99b350d57360e","ducktruck","v001",1037420,"60e37abdc60a8398fd63c9e4","60ef12f12c286ba9fa30ee2f","Firefox",89,1347,2560,1440,2560,"q"," -- select an option -- ",NA,"Click q if you noticed no change between the shape at the start and at the end, click p if you did notice a change. Rate your confidence level on a scale of 1-9.","To see how good people are at perceiving small changes, maybe based on color, speed between observations. ","Worked fine.",1060291,"convex_area1","different","shape5_convex_area1",1,1,"convex"
"50","shape4","no_change5",5,49,"same",9,1141,"55b6a2e5fdf99b350d57360e","ducktruck","v001",1037420,"60e37abdc60a8398fd63c9e4","60ef12f12c286ba9fa30ee2f","Firefox",89,1347,2560,1440,2560,"q"," -- select an option -- ",NA,"Click q if you noticed no change between the shape at the start and at the end, click p if you did notice a change. Rate your confidence level on a scale of 1-9.","To see how good people are at perceiving small changes, maybe based on color, speed between observations. ","Worked fine.",1060291,"no_change","same","shape4_no_change5",1,1,"none"
"51","catch_shape","no_change1",5,50,"same",9,1287,"55b6a2e5fdf99b350d57360e","ducktruck","v001",1037420,"60e37abdc60a8398fd63c9e4","60ef12f12c286ba9fa30ee2f","Firefox",89,1347,2560,1440,2560,"q"," -- select an option -- ",NA,"Click q if you noticed no change between the shape at the start and at the end, click p if you did notice a change. Rate your confidence level on a scale of 1-9.","To see how good people are at perceiving small changes, maybe based on color, speed between observations. ","Worked fine.",1060291,"no_change","same","catch_shape_no_change1",1,1,"none"
"52","shape6","concave_nofill_area1",5,51,"different",4,1829,"55b6a2e5fdf99b350d57360e","ducktruck","v001",1037420,"60e37abdc60a8398fd63c9e4","60ef12f12c286ba9fa30ee2f","Firefox",89,1347,2560,1440,2560,"q"," -- select an option -- ",NA,"Click q if you noticed no change between the shape at the start and at the end, click p if you did notice a change. Rate your confidence level on a scale of 1-9.","To see how good people are at perceiving small changes, maybe based on color, speed between observations. ","Worked fine.",1060291,"concave_nofill_area1","different","shape6_concave_nofill_area1",1,1,"concave_nofill"
"53","shape8","no_change4",5,52,"same",9,1335,"55b6a2e5fdf99b350d57360e","ducktruck","v001",1037420,"60e37abdc60a8398fd63c9e4","60ef12f12c286ba9fa30ee2f","Firefox",89,1347,2560,1440,2560,"q"," -- select an option -- ",NA,"Click q if you noticed no change between the shape at the start and at the end, click p if you did notice a change. Rate your confidence level on a scale of 1-9.","To see how good people are at perceiving small changes, maybe based on color, speed between observations. ","Worked fine.",1060291,"no_change","same","shape8_no_change4",1,1,"none"
"54","shape7","no_change5",5,53,"different",6,1293,"55b6a2e5fdf99b350d57360e","ducktruck","v001",1037420,"60e37abdc60a8398fd63c9e4","60ef12f12c286ba9fa30ee2f","Firefox",89,1347,2560,1440,2560,"q"," -- select an option -- ",NA,"Click q if you noticed no change between the shape at the start and at the end, click p if you did notice a change. Rate your confidence level on a scale of 1-9.","To see how good people are at perceiving small changes, maybe based on color, speed between observations. ","Worked fine.",1060291,"no_change","same","shape7_no_change5",0,1,"none"
"55","shape3","no_change6",6,54,"different",6,1222,"55b6a2e5fdf99b350d57360e","ducktruck","v001",1037420,"60e37abdc60a8398fd63c9e4","60ef12f12c286ba9fa30ee2f","Firefox",89,1347,2560,1440,2560,"q"," -- select an option -- ",NA,"Click q if you noticed no change between the shape at the start and at the end, click p if you did notice a change. Rate your confidence level on a scale of 1-9.","To see how good people are at perceiving small changes, maybe based on color, speed between observations. ","Worked fine.",1060291,"no_change","same","shape3_no_change6",0,1,"none"
"56","shape4","concave_nofill_area1",6,55,"different",9,1893,"55b6a2e5fdf99b350d57360e","ducktruck","v001",1037420,"60e37abdc60a8398fd63c9e4","60ef12f12c286ba9fa30ee2f","Firefox",89,1347,2560,1440,2560,"q"," -- select an option -- ",NA,"Click q if you noticed no change between the shape at the start and at the end, click p if you did notice a change. Rate your confidence level on a scale of 1-9.","To see how good people are at perceiving small changes, maybe based on color, speed between observations. ","Worked fine.",1060291,"concave_nofill_area1","different","shape4_concave_nofill_area1",1,1,"concave_nofill"
"57","shape8","concave_nofill_area1",6,56,"different",9,1207,"55b6a2e5fdf99b350d57360e","ducktruck","v001",1037420,"60e37abdc60a8398fd63c9e4","60ef12f12c286ba9fa30ee2f","Firefox",89,1347,2560,1440,2560,"q"," -- select an option -- ",NA,"Click q if you noticed no change between the shape at the start and at the end, click p if you did notice a change. Rate your confidence level on a scale of 1-9.","To see how good people are at perceiving small changes, maybe based on color, speed between observations. ","Worked fine.",1060291,"concave_nofill_area1","different","shape8_concave_nofill_area1",1,1,"concave_nofill"
"58","shape2","convex_area1",6,57,"different",8,1133,"55b6a2e5fdf99b350d57360e","ducktruck","v001",1037420,"60e37abdc60a8398fd63c9e4","60ef12f12c286ba9fa30ee2f","Firefox",89,1347,2560,1440,2560,"q"," -- select an option -- ",NA,"Click q if you noticed no change between the shape at the start and at the end, click p if you did notice a change. Rate your confidence level on a scale of 1-9.","To see how good people are at perceiving small changes, maybe based on color, speed between observations. ","Worked fine.",1060291,"convex_area1","different","shape2_convex_area1",1,1,"convex"
"59","shape1","no_change6",6,58,"same",8,2582,"55b6a2e5fdf99b350d57360e","ducktruck","v001",1037420,"60e37abdc60a8398fd63c9e4","60ef12f12c286ba9fa30ee2f","Firefox",89,1347,2560,1440,2560,"q"," -- select an option -- ",NA,"Click q if you noticed no change between the shape at the start and at the end, click p if you did notice a change. Rate your confidence level on a scale of 1-9.","To see how good people are at perceiving small changes, maybe based on color, speed between observations. ","Worked fine.",1060291,"no_change","same","shape1_no_change6",1,1,"none"
"60","shape5","no_change6",6,59,"different",7,1078,"55b6a2e5fdf99b350d57360e","ducktruck","v001",1037420,"60e37abdc60a8398fd63c9e4","60ef12f12c286ba9fa30ee2f","Firefox",89,1347,2560,1440,2560,"q"," -- select an option -- ",NA,"Click q if you noticed no change between the shape at the start and at the end, click p if you did notice a change. Rate your confidence level on a scale of 1-9.","To see how good people are at perceiving small changes, maybe based on color, speed between observations. ","Worked fine.",1060291,"no_change","same","shape5_no_change6",0,1,"none"
"61","catch_shape","change5",6,60,"different",9,877,"55b6a2e5fdf99b350d57360e","ducktruck","v001",1037420,"60e37abdc60a8398fd63c9e4","60ef12f12c286ba9fa30ee2f","Firefox",89,1347,2560,1440,2560,"q"," -- select an option -- ",NA,"Click q if you noticed no change between the shape at the start and at the end, click p if you did notice a change. Rate your confidence level on a scale of 1-9.","To see how good people are at perceiving small changes, maybe based on color, speed between observations. ","Worked fine.",1060291,"change5","different","catch_shape_change5",1,1,"none"
"62","shape6","no_change5",6,61,"same",9,1093,"55b6a2e5fdf99b350d57360e","ducktruck","v001",1037420,"60e37abdc60a8398fd63c9e4","60ef12f12c286ba9fa30ee2f","Firefox",89,1347,2560,1440,2560,"q"," -- select an option -- ",NA,"Click q if you noticed no change between the shape at the start and at the end, click p if you did notice a change. Rate your confidence level on a scale of 1-9.","To see how good people are at perceiving small changes, maybe based on color, speed between observations. ","Worked fine.",1060291,"no_change","same","shape6_no_change5",1,1,"none"
"63","shape7","concave_area2",6,62,"different",6,2214,"55b6a2e5fdf99b350d57360e","ducktruck","v001",1037420,"60e37abdc60a8398fd63c9e4","60ef12f12c286ba9fa30ee2f","Firefox",89,1347,2560,1440,2560,"q"," -- select an option -- ",NA,"Click q if you noticed no change between the shape at the start and at the end, click p if you did notice a change. Rate your confidence level on a scale of 1-9.","To see how good people are at perceiving small changes, maybe based on color, speed between observations. ","Worked fine.",1060291,"concave_area2","different","shape7_concave_area2",1,1,"concave"
"64","shape2","convex_area2",7,63,"different",9,1207,"55b6a2e5fdf99b350d57360e","ducktruck","v001",1037420,"60e37abdc60a8398fd63c9e4","60ef12f12c286ba9fa30ee2f","Firefox",89,1347,2560,1440,2560,"q"," -- select an option -- ",NA,"Click q if you noticed no change between the shape at the start and at the end, click p if you did notice a change. Rate your confidence level on a scale of 1-9.","To see how good people are at perceiving small changes, maybe based on color, speed between observations. ","Worked fine.",1060291,"convex_area2","different","shape2_convex_area2",1,1,"convex"
"65","shape1","concave_nofill_area2",7,64,"different",7,1903,"55b6a2e5fdf99b350d57360e","ducktruck","v001",1037420,"60e37abdc60a8398fd63c9e4","60ef12f12c286ba9fa30ee2f","Firefox",89,1347,2560,1440,2560,"q"," -- select an option -- ",NA,"Click q if you noticed no change between the shape at the start and at the end, click p if you did notice a change. Rate your confidence level on a scale of 1-9.","To see how good people are at perceiving small changes, maybe based on color, speed between observations. ","Worked fine.",1060291,"concave_nofill_area2","different","shape1_concave_nofill_area2",1,1,"concave_nofill"
"66","shape3","concave_area1",7,65,"same",5,2735,"55b6a2e5fdf99b350d57360e","ducktruck","v001",1037420,"60e37abdc60a8398fd63c9e4","60ef12f12c286ba9fa30ee2f","Firefox",89,1347,2560,1440,2560,"q"," -- select an option -- ",NA,"Click q if you noticed no change between the shape at the start and at the end, click p if you did notice a change. Rate your confidence level on a scale of 1-9.","To see how good people are at perceiving small changes, maybe based on color, speed between observations. ","Worked fine.",1060291,"concave_area1","different","shape3_concave_area1",0,1,"concave"
"67","shape6","concave_area2",7,66,"different",9,973,"55b6a2e5fdf99b350d57360e","ducktruck","v001",1037420,"60e37abdc60a8398fd63c9e4","60ef12f12c286ba9fa30ee2f","Firefox",89,1347,2560,1440,2560,"q"," -- select an option -- ",NA,"Click q if you noticed no change between the shape at the start and at the end, click p if you did notice a change. Rate your confidence level on a scale of 1-9.","To see how good people are at perceiving small changes, maybe based on color, speed between observations. ","Worked fine.",1060291,"concave_area2","different","shape6_concave_area2",1,1,"concave"
"68","shape4","concave_nofill_area2",7,67,"different",9,830,"55b6a2e5fdf99b350d57360e","ducktruck","v001",1037420,"60e37abdc60a8398fd63c9e4","60ef12f12c286ba9fa30ee2f","Firefox",89,1347,2560,1440,2560,"q"," -- select an option -- ",NA,"Click q if you noticed no change between the shape at the start and at the end, click p if you did notice a change. Rate your confidence level on a scale of 1-9.","To see how good people are at perceiving small changes, maybe based on color, speed between observations. ","Worked fine.",1060291,"concave_nofill_area2","different","shape4_concave_nofill_area2",1,1,"concave_nofill"
"69","shape8","convex_area1",7,68,"different",9,845,"55b6a2e5fdf99b350d57360e","ducktruck","v001",1037420,"60e37abdc60a8398fd63c9e4","60ef12f12c286ba9fa30ee2f","Firefox",89,1347,2560,1440,2560,"q"," -- select an option -- ",NA,"Click q if you noticed no change between the shape at the start and at the end, click p if you did notice a change. Rate your confidence level on a scale of 1-9.","To see how good people are at perceiving small changes, maybe based on color, speed between observations. ","Worked fine.",1060291,"convex_area1","different","shape8_convex_area1",1,1,"convex"
"70","shape7","convex_area1",7,69,"different",9,870,"55b6a2e5fdf99b350d57360e","ducktruck","v001",1037420,"60e37abdc60a8398fd63c9e4","60ef12f12c286ba9fa30ee2f","Firefox",89,1347,2560,1440,2560,"q"," -- select an option -- ",NA,"Click q if you noticed no change between the shape at the start and at the end, click p if you did notice a change. Rate your confidence level on a scale of 1-9.","To see how good people are at perceiving small changes, maybe based on color, speed between observations. ","Worked fine.",1060291,"convex_area1","different","shape7_convex_area1",1,1,"convex"
"71","catch_shape","no_change6",7,70,"different",6,2166,"55b6a2e5fdf99b350d57360e","ducktruck","v001",1037420,"60e37abdc60a8398fd63c9e4","60ef12f12c286ba9fa30ee2f","Firefox",89,1347,2560,1440,2560,"q"," -- select an option -- ",NA,"Click q if you noticed no change between the shape at the start and at the end, click p if you did notice a change. Rate your confidence level on a scale of 1-9.","To see how good people are at perceiving small changes, maybe based on color, speed between observations. ","Worked fine.",1060291,"no_change","same","catch_shape_no_change6",0,1,"none"
"72","shape5","no_change4",7,71,"different",6,1296,"55b6a2e5fdf99b350d57360e","ducktruck","v001",1037420,"60e37abdc60a8398fd63c9e4","60ef12f12c286ba9fa30ee2f","Firefox",89,1347,2560,1440,2560,"q"," -- select an option -- ",NA,"Click q if you noticed no change between the shape at the start and at the end, click p if you did notice a change. Rate your confidence level on a scale of 1-9.","To see how good people are at perceiving small changes, maybe based on color, speed between observations. ","Worked fine.",1060291,"no_change","same","shape5_no_change4",0,1,"none"
"73","shape1","no_change5",8,72,"same",8,1470,"55b6a2e5fdf99b350d57360e","ducktruck","v001",1037420,"60e37abdc60a8398fd63c9e4","60ef12f12c286ba9fa30ee2f","Firefox",89,1347,2560,1440,2560,"q"," -- select an option -- ",NA,"Click q if you noticed no change between the shape at the start and at the end, click p if you did notice a change. Rate your confidence level on a scale of 1-9.","To see how good people are at perceiving small changes, maybe based on color, speed between observations. ","Worked fine.",1060291,"no_change","same","shape1_no_change5",1,1,"none"
"74","shape2","concave_area2",8,73,"different",9,887,"55b6a2e5fdf99b350d57360e","ducktruck","v001",1037420,"60e37abdc60a8398fd63c9e4","60ef12f12c286ba9fa30ee2f","Firefox",89,1347,2560,1440,2560,"q"," -- select an option -- ",NA,"Click q if you noticed no change between the shape at the start and at the end, click p if you did notice a change. Rate your confidence level on a scale of 1-9.","To see how good people are at perceiving small changes, maybe based on color, speed between observations. ","Worked fine.",1060291,"concave_area2","different","shape2_concave_area2",1,1,"concave"
"75","shape4","convex_area1",8,74,"different",9,743,"55b6a2e5fdf99b350d57360e","ducktruck","v001",1037420,"60e37abdc60a8398fd63c9e4","60ef12f12c286ba9fa30ee2f","Firefox",89,1347,2560,1440,2560,"q"," -- select an option -- ",NA,"Click q if you noticed no change between the shape at the start and at the end, click p if you did notice a change. Rate your confidence level on a scale of 1-9.","To see how good people are at perceiving small changes, maybe based on color, speed between observations. ","Worked fine.",1060291,"convex_area1","different","shape4_convex_area1",1,1,"convex"
"76","shape3","concave_nofill_area1",8,75,"different",9,1150,"55b6a2e5fdf99b350d57360e","ducktruck","v001",1037420,"60e37abdc60a8398fd63c9e4","60ef12f12c286ba9fa30ee2f","Firefox",89,1347,2560,1440,2560,"q"," -- select an option -- ",NA,"Click q if you noticed no change between the shape at the start and at the end, click p if you did notice a change. Rate your confidence level on a scale of 1-9.","To see how good people are at perceiving small changes, maybe based on color, speed between observations. ","Worked fine.",1060291,"concave_nofill_area1","different","shape3_concave_nofill_area1",1,1,"concave_nofill"
"77","shape7","concave_nofill_area1",8,76,"different",9,775,"55b6a2e5fdf99b350d57360e","ducktruck","v001",1037420,"60e37abdc60a8398fd63c9e4","60ef12f12c286ba9fa30ee2f","Firefox",89,1347,2560,1440,2560,"q"," -- select an option -- ",NA,"Click q if you noticed no change between the shape at the start and at the end, click p if you did notice a change. Rate your confidence level on a scale of 1-9.","To see how good people are at perceiving small changes, maybe based on color, speed between observations. ","Worked fine.",1060291,"concave_nofill_area1","different","shape7_concave_nofill_area1",1,1,"concave_nofill"
"78","shape6","no_change4",8,77,"different",9,767,"55b6a2e5fdf99b350d57360e","ducktruck","v001",1037420,"60e37abdc60a8398fd63c9e4","60ef12f12c286ba9fa30ee2f","Firefox",89,1347,2560,1440,2560,"q"," -- select an option -- ",NA,"Click q if you noticed no change between the shape at the start and at the end, click p if you did notice a change. Rate your confidence level on a scale of 1-9.","To see how good people are at perceiving small changes, maybe based on color, speed between observations. ","Worked fine.",1060291,"no_change","same","shape6_no_change4",0,1,"none"
"79","shape5","concave_area1",8,78,"different",7,2784,"55b6a2e5fdf99b350d57360e","ducktruck","v001",1037420,"60e37abdc60a8398fd63c9e4","60ef12f12c286ba9fa30ee2f","Firefox",89,1347,2560,1440,2560,"q"," -- select an option -- ",NA,"Click q if you noticed no change between the shape at the start and at the end, click p if you did notice a change. Rate your confidence level on a scale of 1-9.","To see how good people are at perceiving small changes, maybe based on color, speed between observations. ","Worked fine.",1060291,"concave_area1","different","shape5_concave_area1",1,1,"concave"
"80","shape8","convex_area2",8,79,"different",9,757,"55b6a2e5fdf99b350d57360e","ducktruck","v001",1037420,"60e37abdc60a8398fd63c9e4","60ef12f12c286ba9fa30ee2f","Firefox",89,1347,2560,1440,2560,"q"," -- select an option -- ",NA,"Click q if you noticed no change between the shape at the start and at the end, click p if you did notice a change. Rate your confidence level on a scale of 1-9.","To see how good people are at perceiving small changes, maybe based on color, speed between observations. ","Worked fine.",1060291,"convex_area2","different","shape8_convex_area2",1,1,"convex"
"81","catch_shape","change2",8,80,"different",9,655,"55b6a2e5fdf99b350d57360e","ducktruck","v001",1037420,"60e37abdc60a8398fd63c9e4","60ef12f12c286ba9fa30ee2f","Firefox",89,1347,2560,1440,2560,"q"," -- select an option -- ",NA,"Click q if you noticed no change between the shape at the start and at the end, click p if you did notice a change. Rate your confidence level on a scale of 1-9.","To see how good people are at perceiving small changes, maybe based on color, speed between observations. ","Worked fine.",1060291,"change2","different","catch_shape_change2",1,1,"none"
"82","shape2","concave_nofill_area1",9,81,"different",9,1565,"55b6a2e5fdf99b350d57360e","ducktruck","v001",1037420,"60e37abdc60a8398fd63c9e4","60ef12f12c286ba9fa30ee2f","Firefox",89,1347,2560,1440,2560,"q"," -- select an option -- ",NA,"Click q if you noticed no change between the shape at the start and at the end, click p if you did notice a change. Rate your confidence level on a scale of 1-9.","To see how good people are at perceiving small changes, maybe based on color, speed between observations. ","Worked fine.",1060291,"concave_nofill_area1","different","shape2_concave_nofill_area1",1,1,"concave_nofill"
"83","shape1","convex_area1",9,82,"different",9,935,"55b6a2e5fdf99b350d57360e","ducktruck","v001",1037420,"60e37abdc60a8398fd63c9e4","60ef12f12c286ba9fa30ee2f","Firefox",89,1347,2560,1440,2560,"q"," -- select an option -- ",NA,"Click q if you noticed no change between the shape at the start and at the end, click p if you did notice a change. Rate your confidence level on a scale of 1-9.","To see how good people are at perceiving small changes, maybe based on color, speed between observations. ","Worked fine.",1060291,"convex_area1","different","shape1_convex_area1",1,1,"convex"
"84","shape8","concave_nofill_area2",9,83,"different",9,880,"55b6a2e5fdf99b350d57360e","ducktruck","v001",1037420,"60e37abdc60a8398fd63c9e4","60ef12f12c286ba9fa30ee2f","Firefox",89,1347,2560,1440,2560,"q"," -- select an option -- ",NA,"Click q if you noticed no change between the shape at the start and at the end, click p if you did notice a change. Rate your confidence level on a scale of 1-9.","To see how good people are at perceiving small changes, maybe based on color, speed between observations. ","Worked fine.",1060291,"concave_nofill_area2","different","shape8_concave_nofill_area2",1,1,"concave_nofill"
"85","shape3","no_change5",9,84,"same",8,1358,"55b6a2e5fdf99b350d57360e","ducktruck","v001",1037420,"60e37abdc60a8398fd63c9e4","60ef12f12c286ba9fa30ee2f","Firefox",89,1347,2560,1440,2560,"q"," -- select an option -- ",NA,"Click q if you noticed no change between the shape at the start and at the end, click p if you did notice a change. Rate your confidence level on a scale of 1-9.","To see how good people are at perceiving small changes, maybe based on color, speed between observations. ","Worked fine.",1060291,"no_change","same","shape3_no_change5",1,1,"none"
"86","shape4","concave_area1",9,85,"same",9,1686,"55b6a2e5fdf99b350d57360e","ducktruck","v001",1037420,"60e37abdc60a8398fd63c9e4","60ef12f12c286ba9fa30ee2f","Firefox",89,1347,2560,1440,2560,"q"," -- select an option -- ",NA,"Click q if you noticed no change between the shape at the start and at the end, click p if you did notice a change. Rate your confidence level on a scale of 1-9.","To see how good people are at perceiving small changes, maybe based on color, speed between observations. ","Worked fine.",1060291,"concave_area1","different","shape4_concave_area1",0,1,"concave"
"87","shape5","convex_area2",9,86,"different",9,1056,"55b6a2e5fdf99b350d57360e","ducktruck","v001",1037420,"60e37abdc60a8398fd63c9e4","60ef12f12c286ba9fa30ee2f","Firefox",89,1347,2560,1440,2560,"q"," -- select an option -- ",NA,"Click q if you noticed no change between the shape at the start and at the end, click p if you did notice a change. Rate your confidence level on a scale of 1-9.","To see how good people are at perceiving small changes, maybe based on color, speed between observations. ","Worked fine.",1060291,"convex_area2","different","shape5_convex_area2",1,1,"convex"
"88","shape7","concave_nofill_area2",9,87,"different",9,846,"55b6a2e5fdf99b350d57360e","ducktruck","v001",1037420,"60e37abdc60a8398fd63c9e4","60ef12f12c286ba9fa30ee2f","Firefox",89,1347,2560,1440,2560,"q"," -- select an option -- ",NA,"Click q if you noticed no change between the shape at the start and at the end, click p if you did notice a change. Rate your confidence level on a scale of 1-9.","To see how good people are at perceiving small changes, maybe based on color, speed between observations. ","Worked fine.",1060291,"concave_nofill_area2","different","shape7_concave_nofill_area2",1,1,"concave_nofill"
"89","shape6","convex_area2",9,88,"different",9,757,"55b6a2e5fdf99b350d57360e","ducktruck","v001",1037420,"60e37abdc60a8398fd63c9e4","60ef12f12c286ba9fa30ee2f","Firefox",89,1347,2560,1440,2560,"q"," -- select an option -- ",NA,"Click q if you noticed no change between the shape at the start and at the end, click p if you did notice a change. Rate your confidence level on a scale of 1-9.","To see how good people are at perceiving small changes, maybe based on color, speed between observations. ","Worked fine.",1060291,"convex_area2","different","shape6_convex_area2",1,1,"convex"
"90","catch_shape","no_change4",9,89,"same",9,759,"55b6a2e5fdf99b350d57360e","ducktruck","v001",1037420,"60e37abdc60a8398fd63c9e4","60ef12f12c286ba9fa30ee2f","Firefox",89,1347,2560,1440,2560,"q"," -- select an option -- ",NA,"Click q if you noticed no change between the shape at the start and at the end, click p if you did notice a change. Rate your confidence level on a scale of 1-9.","To see how good people are at perceiving small changes, maybe based on color, speed between observations. ","Worked fine.",1060291,"no_change","same","catch_shape_no_change4",1,1,"none"
"91","shape3","convex_area2",10,90,"different",9,695,"55b6a2e5fdf99b350d57360e","ducktruck","v001",1037420,"60e37abdc60a8398fd63c9e4","60ef12f12c286ba9fa30ee2f","Firefox",89,1347,2560,1440,2560,"q"," -- select an option -- ",NA,"Click q if you noticed no change between the shape at the start and at the end, click p if you did notice a change. Rate your confidence level on a scale of 1-9.","To see how good people are at perceiving small changes, maybe based on color, speed between observations. ","Worked fine.",1060291,"convex_area2","different","shape3_convex_area2",1,1,"convex"
"92","shape2","concave_nofill_area2",10,91,"different",9,679,"55b6a2e5fdf99b350d57360e","ducktruck","v001",1037420,"60e37abdc60a8398fd63c9e4","60ef12f12c286ba9fa30ee2f","Firefox",89,1347,2560,1440,2560,"q"," -- select an option -- ",NA,"Click q if you noticed no change between the shape at the start and at the end, click p if you did notice a change. Rate your confidence level on a scale of 1-9.","To see how good people are at perceiving small changes, maybe based on color, speed between observations. ","Worked fine.",1060291,"concave_nofill_area2","different","shape2_concave_nofill_area2",1,1,"concave_nofill"
"93","shape4","convex_area2",10,92,"different",7,1175,"55b6a2e5fdf99b350d57360e","ducktruck","v001",1037420,"60e37abdc60a8398fd63c9e4","60ef12f12c286ba9fa30ee2f","Firefox",89,1347,2560,1440,2560,"q"," -- select an option -- ",NA,"Click q if you noticed no change between the shape at the start and at the end, click p if you did notice a change. Rate your confidence level on a scale of 1-9.","To see how good people are at perceiving small changes, maybe based on color, speed between observations. ","Worked fine.",1060291,"convex_area2","different","shape4_convex_area2",1,1,"convex"
"94","shape1","concave_nofill_area1",10,93,"different",5,2031,"55b6a2e5fdf99b350d57360e","ducktruck","v001",1037420,"60e37abdc60a8398fd63c9e4","60ef12f12c286ba9fa30ee2f","Firefox",89,1347,2560,1440,2560,"q"," -- select an option -- ",NA,"Click q if you noticed no change between the shape at the start and at the end, click p if you did notice a change. Rate your confidence level on a scale of 1-9.","To see how good people are at perceiving small changes, maybe based on color, speed between observations. ","Worked fine.",1060291,"concave_nofill_area1","different","shape1_concave_nofill_area1",1,1,"concave_nofill"
"95","shape5","concave_area2",10,94,"different",9,830,"55b6a2e5fdf99b350d57360e","ducktruck","v001",1037420,"60e37abdc60a8398fd63c9e4","60ef12f12c286ba9fa30ee2f","Firefox",89,1347,2560,1440,2560,"q"," -- select an option -- ",NA,"Click q if you noticed no change between the shape at the start and at the end, click p if you did notice a change. Rate your confidence level on a scale of 1-9.","To see how good people are at perceiving small changes, maybe based on color, speed between observations. ","Worked fine.",1060291,"concave_area2","different","shape5_concave_area2",1,1,"concave"
"96","shape7","concave_area1",10,95,"different",7,1038,"55b6a2e5fdf99b350d57360e","ducktruck","v001",1037420,"60e37abdc60a8398fd63c9e4","60ef12f12c286ba9fa30ee2f","Firefox",89,1347,2560,1440,2560,"q"," -- select an option -- ",NA,"Click q if you noticed no change between the shape at the start and at the end, click p if you did notice a change. Rate your confidence level on a scale of 1-9.","To see how good people are at perceiving small changes, maybe based on color, speed between observations. ","Worked fine.",1060291,"concave_area1","different","shape7_concave_area1",1,1,"concave"
"97","shape8","no_change6",10,96,"same",9,919,"55b6a2e5fdf99b350d57360e","ducktruck","v001",1037420,"60e37abdc60a8398fd63c9e4","60ef12f12c286ba9fa30ee2f","Firefox",89,1347,2560,1440,2560,"q"," -- select an option -- ",NA,"Click q if you noticed no change between the shape at the start and at the end, click p if you did notice a change. Rate your confidence level on a scale of 1-9.","To see how good people are at perceiving small changes, maybe based on color, speed between observations. ","Worked fine.",1060291,"no_change","same","shape8_no_change6",1,1,"none"
"98","shape6","convex_area1",10,97,"different",9,1030,"55b6a2e5fdf99b350d57360e","ducktruck","v001",1037420,"60e37abdc60a8398fd63c9e4","60ef12f12c286ba9fa30ee2f","Firefox",89,1347,2560,1440,2560,"q"," -- select an option -- ",NA,"Click q if you noticed no change between the shape at the start and at the end, click p if you did notice a change. Rate your confidence level on a scale of 1-9.","To see how good people are at perceiving small changes, maybe based on color, speed between observations. ","Worked fine.",1060291,"convex_area1","different","shape6_convex_area1",1,1,"convex"
"99","catch_shape","change3",10,98,"different",9,743,"55b6a2e5fdf99b350d57360e","ducktruck","v001",1037420,"60e37abdc60a8398fd63c9e4","60ef12f12c286ba9fa30ee2f","Firefox",89,1347,2560,1440,2560,"q"," -- select an option -- ",NA,"Click q if you noticed no change between the shape at the start and at the end, click p if you did notice a change. Rate your confidence level on a scale of 1-9.","To see how good people are at perceiving small changes, maybe based on color, speed between observations. ","Worked fine.",1060291,"change3","different","catch_shape_change3",1,1,"none"
"100","shape3","concave_nofill_area2",11,99,"different",9,903,"55b6a2e5fdf99b350d57360e","ducktruck","v001",1037420,"60e37abdc60a8398fd63c9e4","60ef12f12c286ba9fa30ee2f","Firefox",89,1347,2560,1440,2560,"q"," -- select an option -- ",NA,"Click q if you noticed no change between the shape at the start and at the end, click p if you did notice a change. Rate your confidence level on a scale of 1-9.","To see how good people are at perceiving small changes, maybe based on color, speed between observations. ","Worked fine.",1060291,"concave_nofill_area2","different","shape3_concave_nofill_area2",1,1,"concave_nofill"
"101","shape1","convex_area2",11,100,"different",9,748,"55b6a2e5fdf99b350d57360e","ducktruck","v001",1037420,"60e37abdc60a8398fd63c9e4","60ef12f12c286ba9fa30ee2f","Firefox",89,1347,2560,1440,2560,"q"," -- select an option -- ",NA,"Click q if you noticed no change between the shape at the start and at the end, click p if you did notice a change. Rate your confidence level on a scale of 1-9.","To see how good people are at perceiving small changes, maybe based on color, speed between observations. ","Worked fine.",1060291,"convex_area2","different","shape1_convex_area2",1,1,"convex"
"102","shape2","concave_area1",11,101,"different",9,846,"55b6a2e5fdf99b350d57360e","ducktruck","v001",1037420,"60e37abdc60a8398fd63c9e4","60ef12f12c286ba9fa30ee2f","Firefox",89,1347,2560,1440,2560,"q"," -- select an option -- ",NA,"Click q if you noticed no change between the shape at the start and at the end, click p if you did notice a change. Rate your confidence level on a scale of 1-9.","To see how good people are at perceiving small changes, maybe based on color, speed between observations. ","Worked fine.",1060291,"concave_area1","different","shape2_concave_area1",1,1,"concave"
"103","shape4","concave_area2",11,102,"different",9,837,"55b6a2e5fdf99b350d57360e","ducktruck","v001",1037420,"60e37abdc60a8398fd63c9e4","60ef12f12c286ba9fa30ee2f","Firefox",89,1347,2560,1440,2560,"q"," -- select an option -- ",NA,"Click q if you noticed no change between the shape at the start and at the end, click p if you did notice a change. Rate your confidence level on a scale of 1-9.","To see how good people are at perceiving small changes, maybe based on color, speed between observations. ","Worked fine.",1060291,"concave_area2","different","shape4_concave_area2",1,1,"concave"
"104","shape5","concave_nofill_area2",11,103,"different",9,863,"55b6a2e5fdf99b350d57360e","ducktruck","v001",1037420,"60e37abdc60a8398fd63c9e4","60ef12f12c286ba9fa30ee2f","Firefox",89,1347,2560,1440,2560,"q"," -- select an option -- ",NA,"Click q if you noticed no change between the shape at the start and at the end, click p if you did notice a change. Rate your confidence level on a scale of 1-9.","To see how good people are at perceiving small changes, maybe based on color, speed between observations. ","Worked fine.",1060291,"concave_nofill_area2","different","shape5_concave_nofill_area2",1,1,"concave_nofill"
"105","shape6","concave_nofill_area2",11,104,"different",9,871,"55b6a2e5fdf99b350d57360e","ducktruck","v001",1037420,"60e37abdc60a8398fd63c9e4","60ef12f12c286ba9fa30ee2f","Firefox",89,1347,2560,1440,2560,"q"," -- select an option -- ",NA,"Click q if you noticed no change between the shape at the start and at the end, click p if you did notice a change. Rate your confidence level on a scale of 1-9.","To see how good people are at perceiving small changes, maybe based on color, speed between observations. ","Worked fine.",1060291,"concave_nofill_area2","different","shape6_concave_nofill_area2",1,1,"concave_nofill"
"106","catch_shape","change6",11,105,"different",9,789,"55b6a2e5fdf99b350d57360e","ducktruck","v001",1037420,"60e37abdc60a8398fd63c9e4","60ef12f12c286ba9fa30ee2f","Firefox",89,1347,2560,1440,2560,"q"," -- select an option -- ",NA,"Click q if you noticed no change between the shape at the start and at the end, click p if you did notice a change. Rate your confidence level on a scale of 1-9.","To see how good people are at perceiving small changes, maybe based on color, speed between observations. ","Worked fine.",1060291,"change6","different","catch_shape_change6",1,1,"none"
"107","shape8","concave_area2",11,106,"different",9,1183,"55b6a2e5fdf99b350d57360e","ducktruck","v001",1037420,"60e37abdc60a8398fd63c9e4","60ef12f12c286ba9fa30ee2f","Firefox",89,1347,2560,1440,2560,"q"," -- select an option -- ",NA,"Click q if you noticed no change between the shape at the start and at the end, click p if you did notice a change. Rate your confidence level on a scale of 1-9.","To see how good people are at perceiving small changes, maybe based on color, speed between observations. ","Worked fine.",1060291,"concave_area2","different","shape8_concave_area2",1,1,"concave"
"108","shape7","convex_area2",11,107,"different",9,758,"55b6a2e5fdf99b350d57360e","ducktruck","v001",1037420,"60e37abdc60a8398fd63c9e4","60ef12f12c286ba9fa30ee2f","Firefox",89,1347,2560,1440,2560,"q"," -- select an option -- ",NA,"Click q if you noticed no change between the shape at the start and at the end, click p if you did notice a change. Rate your confidence level on a scale of 1-9.","To see how good people are at perceiving small changes, maybe based on color, speed between observations. ","Worked fine.",1060291,"convex_area2","different","shape7_convex_area2",1,1,"convex"
"109","shape4","no_change4",0,0,"same",9,4284.4,"56bd0347d4e218000ca87e53","ducktruck","v001",1411265.7,"60e37abdc60a8398fd63c9e4","60ef2379c3b5d55b8c8aaa61","Chrome",91,957,1903,1080,1920,"q"," -- select an option -- ",NA,"I had to press Q for no change and P for changes. I would then rate how sure I was. It was 108 videos that I would watch once and decide if the shape coming out the other side was the same or not.","To see if you can see slight differences, quickly.","Everything worked really well.",1425793.1,"no_change","same","shape4_no_change4",1,1,"none"
"110","catch_shape","change2",0,1,"different",9,1972.6,"56bd0347d4e218000ca87e53","ducktruck","v001",1411265.7,"60e37abdc60a8398fd63c9e4","60ef2379c3b5d55b8c8aaa61","Chrome",91,957,1903,1080,1920,"q"," -- select an option -- ",NA,"I had to press Q for no change and P for changes. I would then rate how sure I was. It was 108 videos that I would watch once and decide if the shape coming out the other side was the same or not.","To see if you can see slight differences, quickly.","Everything worked really well.",1425793.1,"change2","different","catch_shape_change2",1,1,"none"
"111","shape2","no_change6",0,2,"same",9,1529.2,"56bd0347d4e218000ca87e53","ducktruck","v001",1411265.7,"60e37abdc60a8398fd63c9e4","60ef2379c3b5d55b8c8aaa61","Chrome",91,957,1903,1080,1920,"q"," -- select an option -- ",NA,"I had to press Q for no change and P for changes. I would then rate how sure I was. It was 108 videos that I would watch once and decide if the shape coming out the other side was the same or not.","To see if you can see slight differences, quickly.","Everything worked really well.",1425793.1,"no_change","same","shape2_no_change6",1,1,"none"
"112","shape1","no_change1",0,3,"same",9,1235.9,"56bd0347d4e218000ca87e53","ducktruck","v001",1411265.7,"60e37abdc60a8398fd63c9e4","60ef2379c3b5d55b8c8aaa61","Chrome",91,957,1903,1080,1920,"q"," -- select an option -- ",NA,"I had to press Q for no change and P for changes. I would then rate how sure I was. It was 108 videos that I would watch once and decide if the shape coming out the other side was the same or not.","To see if you can see slight differences, quickly.","Everything worked really well.",1425793.1,"no_change","same","shape1_no_change1",1,1,"none"
"113","shape3","concave_area1",0,4,"same",9,1153.9,"56bd0347d4e218000ca87e53","ducktruck","v001",1411265.7,"60e37abdc60a8398fd63c9e4","60ef2379c3b5d55b8c8aaa61","Chrome",91,957,1903,1080,1920,"q"," -- select an option -- ",NA,"I had to press Q for no change and P for changes. I would then rate how sure I was. It was 108 videos that I would watch once and decide if the shape coming out the other side was the same or not.","To see if you can see slight differences, quickly.","Everything worked really well.",1425793.1,"concave_area1","different","shape3_concave_area1",0,1,"concave"
"114","shape5","no_change1",0,5,"same",9,1116.9,"56bd0347d4e218000ca87e53","ducktruck","v001",1411265.7,"60e37abdc60a8398fd63c9e4","60ef2379c3b5d55b8c8aaa61","Chrome",91,957,1903,1080,1920,"q"," -- select an option -- ",NA,"I had to press Q for no change and P for changes. I would then rate how sure I was. It was 108 videos that I would watch once and decide if the shape coming out the other side was the same or not.","To see if you can see slight differences, quickly.","Everything worked really well.",1425793.1,"no_change","same","shape5_no_change1",1,1,"none"
"115","shape6","convex_area2",0,6,"same",8,1818.1,"56bd0347d4e218000ca87e53","ducktruck","v001",1411265.7,"60e37abdc60a8398fd63c9e4","60ef2379c3b5d55b8c8aaa61","Chrome",91,957,1903,1080,1920,"q"," -- select an option -- ",NA,"I had to press Q for no change and P for changes. I would then rate how sure I was. It was 108 videos that I would watch once and decide if the shape coming out the other side was the same or not.","To see if you can see slight differences, quickly.","Everything worked really well.",1425793.1,"convex_area2","different","shape6_convex_area2",0,1,"convex"
"116","shape8","no_change6",0,7,"same",9,1005.5,"56bd0347d4e218000ca87e53","ducktruck","v001",1411265.7,"60e37abdc60a8398fd63c9e4","60ef2379c3b5d55b8c8aaa61","Chrome",91,957,1903,1080,1920,"q"," -- select an option -- ",NA,"I had to press Q for no change and P for changes. I would then rate how sure I was. It was 108 videos that I would watch once and decide if the shape coming out the other side was the same or not.","To see if you can see slight differences, quickly.","Everything worked really well.",1425793.1,"no_change","same","shape8_no_change6",1,1,"none"
"117","shape7","no_change1",0,8,"same",9,1060.4,"56bd0347d4e218000ca87e53","ducktruck","v001",1411265.7,"60e37abdc60a8398fd63c9e4","60ef2379c3b5d55b8c8aaa61","Chrome",91,957,1903,1080,1920,"q"," -- select an option -- ",NA,"I had to press Q for no change and P for changes. I would then rate how sure I was. It was 108 videos that I would watch once and decide if the shape coming out the other side was the same or not.","To see if you can see slight differences, quickly.","Everything worked really well.",1425793.1,"no_change","same","shape7_no_change1",1,1,"none"
"118","shape2","concave_area1",1,9,"same",9,1413,"56bd0347d4e218000ca87e53","ducktruck","v001",1411265.7,"60e37abdc60a8398fd63c9e4","60ef2379c3b5d55b8c8aaa61","Chrome",91,957,1903,1080,1920,"q"," -- select an option -- ",NA,"I had to press Q for no change and P for changes. I would then rate how sure I was. It was 108 videos that I would watch once and decide if the shape coming out the other side was the same or not.","To see if you can see slight differences, quickly.","Everything worked really well.",1425793.1,"concave_area1","different","shape2_concave_area1",0,1,"concave"
"119","shape4","no_change1",1,10,"same",9,994.1,"56bd0347d4e218000ca87e53","ducktruck","v001",1411265.7,"60e37abdc60a8398fd63c9e4","60ef2379c3b5d55b8c8aaa61","Chrome",91,957,1903,1080,1920,"q"," -- select an option -- ",NA,"I had to press Q for no change and P for changes. I would then rate how sure I was. It was 108 videos that I would watch once and decide if the shape coming out the other side was the same or not.","To see if you can see slight differences, quickly.","Everything worked really well.",1425793.1,"no_change","same","shape4_no_change1",1,1,"none"
"120","catch_shape","no_change6",1,11,"same",9,949.6,"56bd0347d4e218000ca87e53","ducktruck","v001",1411265.7,"60e37abdc60a8398fd63c9e4","60ef2379c3b5d55b8c8aaa61","Chrome",91,957,1903,1080,1920,"q"," -- select an option -- ",NA,"I had to press Q for no change and P for changes. I would then rate how sure I was. It was 108 videos that I would watch once and decide if the shape coming out the other side was the same or not.","To see if you can see slight differences, quickly.","Everything worked really well.",1425793.1,"no_change","same","catch_shape_no_change6",1,1,"none"
"121","shape6","concave_area1",1,12,"same",9,1202.4,"56bd0347d4e218000ca87e53","ducktruck","v001",1411265.7,"60e37abdc60a8398fd63c9e4","60ef2379c3b5d55b8c8aaa61","Chrome",91,957,1903,1080,1920,"q"," -- select an option -- ",NA,"I had to press Q for no change and P for changes. I would then rate how sure I was. It was 108 videos that I would watch once and decide if the shape coming out the other side was the same or not.","To see if you can see slight differences, quickly.","Everything worked really well.",1425793.1,"concave_area1","different","shape6_concave_area1",0,1,"concave"
"122","shape8","no_change4",1,13,"same",8,1557,"56bd0347d4e218000ca87e53","ducktruck","v001",1411265.7,"60e37abdc60a8398fd63c9e4","60ef2379c3b5d55b8c8aaa61","Chrome",91,957,1903,1080,1920,"q"," -- select an option -- ",NA,"I had to press Q for no change and P for changes. I would then rate how sure I was. It was 108 videos that I would watch once and decide if the shape coming out the other side was the same or not.","To see if you can see slight differences, quickly.","Everything worked really well.",1425793.1,"no_change","same","shape8_no_change4",1,1,"none"
"123","shape7","convex_area2",1,14,"different",7,2396.2,"56bd0347d4e218000ca87e53","ducktruck","v001",1411265.7,"60e37abdc60a8398fd63c9e4","60ef2379c3b5d55b8c8aaa61","Chrome",91,957,1903,1080,1920,"q"," -- select an option -- ",NA,"I had to press Q for no change and P for changes. I would then rate how sure I was. It was 108 videos that I would watch once and decide if the shape coming out the other side was the same or not.","To see if you can see slight differences, quickly.","Everything worked really well.",1425793.1,"convex_area2","different","shape7_convex_area2",1,1,"convex"
"124","shape1","concave_area1",1,15,"same",9,1611.6,"56bd0347d4e218000ca87e53","ducktruck","v001",1411265.7,"60e37abdc60a8398fd63c9e4","60ef2379c3b5d55b8c8aaa61","Chrome",91,957,1903,1080,1920,"q"," -- select an option -- ",NA,"I had to press Q for no change and P for changes. I would then rate how sure I was. It was 108 videos that I would watch once and decide if the shape coming out the other side was the same or not.","To see if you can see slight differences, quickly.","Everything worked really well.",1425793.1,"concave_area1","different","shape1_concave_area1",0,1,"concave"
"125","shape3","concave_area2",1,16,"different",8,1634.9,"56bd0347d4e218000ca87e53","ducktruck","v001",1411265.7,"60e37abdc60a8398fd63c9e4","60ef2379c3b5d55b8c8aaa61","Chrome",91,957,1903,1080,1920,"q"," -- select an option -- ",NA,"I had to press Q for no change and P for changes. I would then rate how sure I was. It was 108 videos that I would watch once and decide if the shape coming out the other side was the same or not.","To see if you can see slight differences, quickly.","Everything worked really well.",1425793.1,"concave_area2","different","shape3_concave_area2",1,1,"concave"
"126","shape5","no_change2",1,17,"same",8,1686.5,"56bd0347d4e218000ca87e53","ducktruck","v001",1411265.7,"60e37abdc60a8398fd63c9e4","60ef2379c3b5d55b8c8aaa61","Chrome",91,957,1903,1080,1920,"q"," -- select an option -- ",NA,"I had to press Q for no change and P for changes. I would then rate how sure I was. It was 108 videos that I would watch once and decide if the shape coming out the other side was the same or not.","To see if you can see slight differences, quickly.","Everything worked really well.",1425793.1,"no_change","same","shape5_no_change2",1,1,"none"
"127","shape8","concave_area2",2,18,"same",9,1669.7,"56bd0347d4e218000ca87e53","ducktruck","v001",1411265.7,"60e37abdc60a8398fd63c9e4","60ef2379c3b5d55b8c8aaa61","Chrome",91,957,1903,1080,1920,"q"," -- select an option -- ",NA,"I had to press Q for no change and P for changes. I would then rate how sure I was. It was 108 videos that I would watch once and decide if the shape coming out the other side was the same or not.","To see if you can see slight differences, quickly.","Everything worked really well.",1425793.1,"concave_area2","different","shape8_concave_area2",0,1,"concave"
"128","shape7","no_change2",2,19,"same",7,1169.3,"56bd0347d4e218000ca87e53","ducktruck","v001",1411265.7,"60e37abdc60a8398fd63c9e4","60ef2379c3b5d55b8c8aaa61","Chrome",91,957,1903,1080,1920,"q"," -- select an option -- ",NA,"I had to press Q for no change and P for changes. I would then rate how sure I was. It was 108 videos that I would watch once and decide if the shape coming out the other side was the same or not.","To see if you can see slight differences, quickly.","Everything worked really well.",1425793.1,"no_change","same","shape7_no_change2",1,1,"none"
"129","shape4","no_change6",2,20,"same",7,852,"56bd0347d4e218000ca87e53","ducktruck","v001",1411265.7,"60e37abdc60a8398fd63c9e4","60ef2379c3b5d55b8c8aaa61","Chrome",91,957,1903,1080,1920,"q"," -- select an option -- ",NA,"I had to press Q for no change and P for changes. I would then rate how sure I was. It was 108 videos that I would watch once and decide if the shape coming out the other side was the same or not.","To see if you can see slight differences, quickly.","Everything worked really well.",1425793.1,"no_change","same","shape4_no_change6",1,1,"none"
"130","catch_shape","no_change1",2,21,"same",8,972.5,"56bd0347d4e218000ca87e53","ducktruck","v001",1411265.7,"60e37abdc60a8398fd63c9e4","60ef2379c3b5d55b8c8aaa61","Chrome",91,957,1903,1080,1920,"q"," -- select an option -- ",NA,"I had to press Q for no change and P for changes. I would then rate how sure I was. It was 108 videos that I would watch once and decide if the shape coming out the other side was the same or not.","To see if you can see slight differences, quickly.","Everything worked really well.",1425793.1,"no_change","same","catch_shape_no_change1",1,1,"none"
"131","shape3","concave_nofill_area2",2,22,"different",8,1942.2,"56bd0347d4e218000ca87e53","ducktruck","v001",1411265.7,"60e37abdc60a8398fd63c9e4","60ef2379c3b5d55b8c8aaa61","Chrome",91,957,1903,1080,1920,"q"," -- select an option -- ",NA,"I had to press Q for no change and P for changes. I would then rate how sure I was. It was 108 videos that I would watch once and decide if the shape coming out the other side was the same or not.","To see if you can see slight differences, quickly.","Everything worked really well.",1425793.1,"concave_nofill_area2","different","shape3_concave_nofill_area2",1,1,"concave_nofill"
"132","shape2","concave_nofill_area1",2,23,"different",9,1789.1,"56bd0347d4e218000ca87e53","ducktruck","v001",1411265.7,"60e37abdc60a8398fd63c9e4","60ef2379c3b5d55b8c8aaa61","Chrome",91,957,1903,1080,1920,"q"," -- select an option -- ",NA,"I had to press Q for no change and P for changes. I would then rate how sure I was. It was 108 videos that I would watch once and decide if the shape coming out the other side was the same or not.","To see if you can see slight differences, quickly.","Everything worked really well.",1425793.1,"concave_nofill_area1","different","shape2_concave_nofill_area1",1,1,"concave_nofill"
"133","shape1","no_change6",2,24,"same",8,1677.5,"56bd0347d4e218000ca87e53","ducktruck","v001",1411265.7,"60e37abdc60a8398fd63c9e4","60ef2379c3b5d55b8c8aaa61","Chrome",91,957,1903,1080,1920,"q"," -- select an option -- ",NA,"I had to press Q for no change and P for changes. I would then rate how sure I was. It was 108 videos that I would watch once and decide if the shape coming out the other side was the same or not.","To see if you can see slight differences, quickly.","Everything worked really well.",1425793.1,"no_change","same","shape1_no_change6",1,1,"none"
"134","shape6","no_change5",2,25,"different",8,3239.5,"56bd0347d4e218000ca87e53","ducktruck","v001",1411265.7,"60e37abdc60a8398fd63c9e4","60ef2379c3b5d55b8c8aaa61","Chrome",91,957,1903,1080,1920,"q"," -- select an option -- ",NA,"I had to press Q for no change and P for changes. I would then rate how sure I was. It was 108 videos that I would watch once and decide if the shape coming out the other side was the same or not.","To see if you can see slight differences, quickly.","Everything worked really well.",1425793.1,"no_change","same","shape6_no_change5",0,1,"none"
"135","shape5","no_change3",2,26,"same",7,918,"56bd0347d4e218000ca87e53","ducktruck","v001",1411265.7,"60e37abdc60a8398fd63c9e4","60ef2379c3b5d55b8c8aaa61","Chrome",91,957,1903,1080,1920,"q"," -- select an option -- ",NA,"I had to press Q for no change and P for changes. I would then rate how sure I was. It was 108 videos that I would watch once and decide if the shape coming out the other side was the same or not.","To see if you can see slight differences, quickly.","Everything worked really well.",1425793.1,"no_change","same","shape5_no_change3",1,1,"none"
"136","shape1","concave_area2",3,27,"different",8,1493.3,"56bd0347d4e218000ca87e53","ducktruck","v001",1411265.7,"60e37abdc60a8398fd63c9e4","60ef2379c3b5d55b8c8aaa61","Chrome",91,957,1903,1080,1920,"q"," -- select an option -- ",NA,"I had to press Q for no change and P for changes. I would then rate how sure I was. It was 108 videos that I would watch once and decide if the shape coming out the other side was the same or not.","To see if you can see slight differences, quickly.","Everything worked really well.",1425793.1,"concave_area2","different","shape1_concave_area2",1,1,"concave"
"137","shape5","no_change4",3,28,"same",8,843.8,"56bd0347d4e218000ca87e53","ducktruck","v001",1411265.7,"60e37abdc60a8398fd63c9e4","60ef2379c3b5d55b8c8aaa61","Chrome",91,957,1903,1080,1920,"q"," -- select an option -- ",NA,"I had to press Q for no change and P for changes. I would then rate how sure I was. It was 108 videos that I would watch once and decide if the shape coming out the other side was the same or not.","To see if you can see slight differences, quickly.","Everything worked really well.",1425793.1,"no_change","same","shape5_no_change4",1,1,"none"
"138","shape6","no_change1",3,29,"different",7,996.8,"56bd0347d4e218000ca87e53","ducktruck","v001",1411265.7,"60e37abdc60a8398fd63c9e4","60ef2379c3b5d55b8c8aaa61","Chrome",91,957,1903,1080,1920,"q"," -- select an option -- ",NA,"I had to press Q for no change and P for changes. I would then rate how sure I was. It was 108 videos that I would watch once and decide if the shape coming out the other side was the same or not.","To see if you can see slight differences, quickly.","Everything worked really well.",1425793.1,"no_change","same","shape6_no_change1",0,1,"none"
"139","shape2","convex_area1",3,30,"same",7,1770.7,"56bd0347d4e218000ca87e53","ducktruck","v001",1411265.7,"60e37abdc60a8398fd63c9e4","60ef2379c3b5d55b8c8aaa61","Chrome",91,957,1903,1080,1920,"q"," -- select an option -- ",NA,"I had to press Q for no change and P for changes. I would then rate how sure I was. It was 108 videos that I would watch once and decide if the shape coming out the other side was the same or not.","To see if you can see slight differences, quickly.","Everything worked really well.",1425793.1,"convex_area1","different","shape2_convex_area1",0,1,"convex"
"140","shape4","no_change2",3,31,"same",7,684.5,"56bd0347d4e218000ca87e53","ducktruck","v001",1411265.7,"60e37abdc60a8398fd63c9e4","60ef2379c3b5d55b8c8aaa61","Chrome",91,957,1903,1080,1920,"q"," -- select an option -- ",NA,"I had to press Q for no change and P for changes. I would then rate how sure I was. It was 108 videos that I would watch once and decide if the shape coming out the other side was the same or not.","To see if you can see slight differences, quickly.","Everything worked really well.",1425793.1,"no_change","same","shape4_no_change2",1,1,"none"
"141","shape7","concave_area2",3,32,"same",7,3050.7,"56bd0347d4e218000ca87e53","ducktruck","v001",1411265.7,"60e37abdc60a8398fd63c9e4","60ef2379c3b5d55b8c8aaa61","Chrome",91,957,1903,1080,1920,"q"," -- select an option -- ",NA,"I had to press Q for no change and P for changes. I would then rate how sure I was. It was 108 videos that I would watch once and decide if the shape coming out the other side was the same or not.","To see if you can see slight differences, quickly.","Everything worked really well.",1425793.1,"concave_area2","different","shape7_concave_area2",0,1,"concave"
"142","shape3","convex_area1",3,33,"different",7,2114.8,"56bd0347d4e218000ca87e53","ducktruck","v001",1411265.7,"60e37abdc60a8398fd63c9e4","60ef2379c3b5d55b8c8aaa61","Chrome",91,957,1903,1080,1920,"q"," -- select an option -- ",NA,"I had to press Q for no change and P for changes. I would then rate how sure I was. It was 108 videos that I would watch once and decide if the shape coming out the other side was the same or not.","To see if you can see slight differences, quickly.","Everything worked really well.",1425793.1,"convex_area1","different","shape3_convex_area1",1,1,"convex"
"143","shape8","convex_area1",3,34,"same",8,1831.2,"56bd0347d4e218000ca87e53","ducktruck","v001",1411265.7,"60e37abdc60a8398fd63c9e4","60ef2379c3b5d55b8c8aaa61","Chrome",91,957,1903,1080,1920,"q"," -- select an option -- ",NA,"I had to press Q for no change and P for changes. I would then rate how sure I was. It was 108 videos that I would watch once and decide if the shape coming out the other side was the same or not.","To see if you can see slight differences, quickly.","Everything worked really well.",1425793.1,"convex_area1","different","shape8_convex_area1",0,1,"convex"
"144","catch_shape","change4",3,35,"different",9,1988.7,"56bd0347d4e218000ca87e53","ducktruck","v001",1411265.7,"60e37abdc60a8398fd63c9e4","60ef2379c3b5d55b8c8aaa61","Chrome",91,957,1903,1080,1920,"q"," -- select an option -- ",NA,"I had to press Q for no change and P for changes. I would then rate how sure I was. It was 108 videos that I would watch once and decide if the shape coming out the other side was the same or not.","To see if you can see slight differences, quickly.","Everything worked really well.",1425793.1,"change4","different","catch_shape_change4",1,1,"none"
"145","shape8","no_change3",4,36,"same",8,1949.6,"56bd0347d4e218000ca87e53","ducktruck","v001",1411265.7,"60e37abdc60a8398fd63c9e4","60ef2379c3b5d55b8c8aaa61","Chrome",91,957,1903,1080,1920,"q"," -- select an option -- ",NA,"I had to press Q for no change and P for changes. I would then rate how sure I was. It was 108 videos that I would watch once and decide if the shape coming out the other side was the same or not.","To see if you can see slight differences, quickly.","Everything worked really well.",1425793.1,"no_change","same","shape8_no_change3",1,1,"none"
"146","shape6","no_change4",4,37,"different",7,2290,"56bd0347d4e218000ca87e53","ducktruck","v001",1411265.7,"60e37abdc60a8398fd63c9e4","60ef2379c3b5d55b8c8aaa61","Chrome",91,957,1903,1080,1920,"q"," -- select an option -- ",NA,"I had to press Q for no change and P for changes. I would then rate how sure I was. It was 108 videos that I would watch once and decide if the shape coming out the other side was the same or not.","To see if you can see slight differences, quickly.","Everything worked really well.",1425793.1,"no_change","same","shape6_no_change4",0,1,"none"
"147","shape7","no_change3",4,38,"same",8,2331.6,"56bd0347d4e218000ca87e53","ducktruck","v001",1411265.7,"60e37abdc60a8398fd63c9e4","60ef2379c3b5d55b8c8aaa61","Chrome",91,957,1903,1080,1920,"q"," -- select an option -- ",NA,"I had to press Q for no change and P for changes. I would then rate how sure I was. It was 108 videos that I would watch once and decide if the shape coming out the other side was the same or not.","To see if you can see slight differences, quickly.","Everything worked really well.",1425793.1,"no_change","same","shape7_no_change3",1,1,"none"
"148","shape1","no_change2",4,39,"different",7,30955.5,"56bd0347d4e218000ca87e53","ducktruck","v001",1411265.7,"60e37abdc60a8398fd63c9e4","60ef2379c3b5d55b8c8aaa61","Chrome",91,957,1903,1080,1920,"q"," -- select an option -- ",NA,"I had to press Q for no change and P for changes. I would then rate how sure I was. It was 108 videos that I would watch once and decide if the shape coming out the other side was the same or not.","To see if you can see slight differences, quickly.","Everything worked really well.",1425793.1,"no_change","same","shape1_no_change2",0,1,"none"
"149","shape2","concave_nofill_area2",4,40,"same",7,1762,"56bd0347d4e218000ca87e53","ducktruck","v001",1411265.7,"60e37abdc60a8398fd63c9e4","60ef2379c3b5d55b8c8aaa61","Chrome",91,957,1903,1080,1920,"q"," -- select an option -- ",NA,"I had to press Q for no change and P for changes. I would then rate how sure I was. It was 108 videos that I would watch once and decide if the shape coming out the other side was the same or not.","To see if you can see slight differences, quickly.","Everything worked really well.",1425793.1,"concave_nofill_area2","different","shape2_concave_nofill_area2",0,1,"concave_nofill"
"150","catch_shape","no_change2",4,41,"same",6,1940.3,"56bd0347d4e218000ca87e53","ducktruck","v001",1411265.7,"60e37abdc60a8398fd63c9e4","60ef2379c3b5d55b8c8aaa61","Chrome",91,957,1903,1080,1920,"q"," -- select an option -- ",NA,"I had to press Q for no change and P for changes. I would then rate how sure I was. It was 108 videos that I would watch once and decide if the shape coming out the other side was the same or not.","To see if you can see slight differences, quickly.","Everything worked really well.",1425793.1,"no_change","same","catch_shape_no_change2",1,1,"none"
"151","shape5","no_change5",4,42,"same",8,1508.4,"56bd0347d4e218000ca87e53","ducktruck","v001",1411265.7,"60e37abdc60a8398fd63c9e4","60ef2379c3b5d55b8c8aaa61","Chrome",91,957,1903,1080,1920,"q"," -- select an option -- ",NA,"I had to press Q for no change and P for changes. I would then rate how sure I was. It was 108 videos that I would watch once and decide if the shape coming out the other side was the same or not.","To see if you can see slight differences, quickly.","Everything worked really well.",1425793.1,"no_change","same","shape5_no_change5",1,1,"none"
"152","shape3","no_change5",4,43,"different",7,1566.8,"56bd0347d4e218000ca87e53","ducktruck","v001",1411265.7,"60e37abdc60a8398fd63c9e4","60ef2379c3b5d55b8c8aaa61","Chrome",91,957,1903,1080,1920,"q"," -- select an option -- ",NA,"I had to press Q for no change and P for changes. I would then rate how sure I was. It was 108 videos that I would watch once and decide if the shape coming out the other side was the same or not.","To see if you can see slight differences, quickly.","Everything worked really well.",1425793.1,"no_change","same","shape3_no_change5",0,1,"none"
"153","shape4","no_change5",4,44,"same",8,4232.7,"56bd0347d4e218000ca87e53","ducktruck","v001",1411265.7,"60e37abdc60a8398fd63c9e4","60ef2379c3b5d55b8c8aaa61","Chrome",91,957,1903,1080,1920,"q"," -- select an option -- ",NA,"I had to press Q for no change and P for changes. I would then rate how sure I was. It was 108 videos that I would watch once and decide if the shape coming out the other side was the same or not.","To see if you can see slight differences, quickly.","Everything worked really well.",1425793.1,"no_change","same","shape4_no_change5",1,1,"none"
"154","shape4","concave_area2",5,45,"different",8,2242,"56bd0347d4e218000ca87e53","ducktruck","v001",1411265.7,"60e37abdc60a8398fd63c9e4","60ef2379c3b5d55b8c8aaa61","Chrome",91,957,1903,1080,1920,"q"," -- select an option -- ",NA,"I had to press Q for no change and P for changes. I would then rate how sure I was. It was 108 videos that I would watch once and decide if the shape coming out the other side was the same or not.","To see if you can see slight differences, quickly.","Everything worked really well.",1425793.1,"concave_area2","different","shape4_concave_area2",1,1,"concave"
"155","shape1","convex_area2",5,46,"different",9,1916.2,"56bd0347d4e218000ca87e53","ducktruck","v001",1411265.7,"60e37abdc60a8398fd63c9e4","60ef2379c3b5d55b8c8aaa61","Chrome",91,957,1903,1080,1920,"q"," -- select an option -- ",NA,"I had to press Q for no change and P for changes. I would then rate how sure I was. It was 108 videos that I would watch once and decide if the shape coming out the other side was the same or not.","To see if you can see slight differences, quickly.","Everything worked really well.",1425793.1,"convex_area2","different","shape1_convex_area2",1,1,"convex"
"156","shape6","no_change2",5,47,"different",7,1892.6,"56bd0347d4e218000ca87e53","ducktruck","v001",1411265.7,"60e37abdc60a8398fd63c9e4","60ef2379c3b5d55b8c8aaa61","Chrome",91,957,1903,1080,1920,"q"," -- select an option -- ",NA,"I had to press Q for no change and P for changes. I would then rate how sure I was. It was 108 videos that I would watch once and decide if the shape coming out the other side was the same or not.","To see if you can see slight differences, quickly.","Everything worked really well.",1425793.1,"no_change","same","shape6_no_change2",0,1,"none"
"157","shape8","no_change2",5,48,"same",9,1167.5,"56bd0347d4e218000ca87e53","ducktruck","v001",1411265.7,"60e37abdc60a8398fd63c9e4","60ef2379c3b5d55b8c8aaa61","Chrome",91,957,1903,1080,1920,"q"," -- select an option -- ",NA,"I had to press Q for no change and P for changes. I would then rate how sure I was. It was 108 videos that I would watch once and decide if the shape coming out the other side was the same or not.","To see if you can see slight differences, quickly.","Everything worked really well.",1425793.1,"no_change","same","shape8_no_change2",1,1,"none"
"158","shape3","no_change1",5,49,"different",7,1188.3,"56bd0347d4e218000ca87e53","ducktruck","v001",1411265.7,"60e37abdc60a8398fd63c9e4","60ef2379c3b5d55b8c8aaa61","Chrome",91,957,1903,1080,1920,"q"," -- select an option -- ",NA,"I had to press Q for no change and P for changes. I would then rate how sure I was. It was 108 videos that I would watch once and decide if the shape coming out the other side was the same or not.","To see if you can see slight differences, quickly.","Everything worked really well.",1425793.1,"no_change","same","shape3_no_change1",0,1,"none"
"159","shape2","concave_area2",5,50,"different",7,1916.7,"56bd0347d4e218000ca87e53","ducktruck","v001",1411265.7,"60e37abdc60a8398fd63c9e4","60ef2379c3b5d55b8c8aaa61","Chrome",91,957,1903,1080,1920,"q"," -- select an option -- ",NA,"I had to press Q for no change and P for changes. I would then rate how sure I was. It was 108 videos that I would watch once and decide if the shape coming out the other side was the same or not.","To see if you can see slight differences, quickly.","Everything worked really well.",1425793.1,"concave_area2","different","shape2_concave_area2",1,1,"concave"
"160","catch_shape","no_change3",5,51,"different",2,3269,"56bd0347d4e218000ca87e53","ducktruck","v001",1411265.7,"60e37abdc60a8398fd63c9e4","60ef2379c3b5d55b8c8aaa61","Chrome",91,957,1903,1080,1920,"q"," -- select an option -- ",NA,"I had to press Q for no change and P for changes. I would then rate how sure I was. It was 108 videos that I would watch once and decide if the shape coming out the other side was the same or not.","To see if you can see slight differences, quickly.","Everything worked really well.",1425793.1,"no_change","same","catch_shape_no_change3",0,1,"none"
"161","shape5","concave_nofill_area2",5,52,"different",9,1356.1,"56bd0347d4e218000ca87e53","ducktruck","v001",1411265.7,"60e37abdc60a8398fd63c9e4","60ef2379c3b5d55b8c8aaa61","Chrome",91,957,1903,1080,1920,"q"," -- select an option -- ",NA,"I had to press Q for no change and P for changes. I would then rate how sure I was. It was 108 videos that I would watch once and decide if the shape coming out the other side was the same or not.","To see if you can see slight differences, quickly.","Everything worked really well.",1425793.1,"concave_nofill_area2","different","shape5_concave_nofill_area2",1,1,"concave_nofill"
"162","shape7","convex_area1",5,53,"different",9,2036.8,"56bd0347d4e218000ca87e53","ducktruck","v001",1411265.7,"60e37abdc60a8398fd63c9e4","60ef2379c3b5d55b8c8aaa61","Chrome",91,957,1903,1080,1920,"q"," -- select an option -- ",NA,"I had to press Q for no change and P for changes. I would then rate how sure I was. It was 108 videos that I would watch once and decide if the shape coming out the other side was the same or not.","To see if you can see slight differences, quickly.","Everything worked really well.",1425793.1,"convex_area1","different","shape7_convex_area1",1,1,"convex"
"163","catch_shape","change6",6,54,"different",9,1340.6,"56bd0347d4e218000ca87e53","ducktruck","v001",1411265.7,"60e37abdc60a8398fd63c9e4","60ef2379c3b5d55b8c8aaa61","Chrome",91,957,1903,1080,1920,"q"," -- select an option -- ",NA,"I had to press Q for no change and P for changes. I would then rate how sure I was. It was 108 videos that I would watch once and decide if the shape coming out the other side was the same or not.","To see if you can see slight differences, quickly.","Everything worked really well.",1425793.1,"change6","different","catch_shape_change6",1,1,"none"
"164","shape5","no_change6",6,55,"same",8,1645.7,"56bd0347d4e218000ca87e53","ducktruck","v001",1411265.7,"60e37abdc60a8398fd63c9e4","60ef2379c3b5d55b8c8aaa61","Chrome",91,957,1903,1080,1920,"q"," -- select an option -- ",NA,"I had to press Q for no change and P for changes. I would then rate how sure I was. It was 108 videos that I would watch once and decide if the shape coming out the other side was the same or not.","To see if you can see slight differences, quickly.","Everything worked really well.",1425793.1,"no_change","same","shape5_no_change6",1,1,"none"
"165","shape8","concave_nofill_area1",6,56,"different",9,1692.5,"56bd0347d4e218000ca87e53","ducktruck","v001",1411265.7,"60e37abdc60a8398fd63c9e4","60ef2379c3b5d55b8c8aaa61","Chrome",91,957,1903,1080,1920,"q"," -- select an option -- ",NA,"I had to press Q for no change and P for changes. I would then rate how sure I was. It was 108 videos that I would watch once and decide if the shape coming out the other side was the same or not.","To see if you can see slight differences, quickly.","Everything worked really well.",1425793.1,"concave_nofill_area1","different","shape8_concave_nofill_area1",1,1,"concave_nofill"
"166","shape4","no_change3",6,57,"same",9,2184.3,"56bd0347d4e218000ca87e53","ducktruck","v001",1411265.7,"60e37abdc60a8398fd63c9e4","60ef2379c3b5d55b8c8aaa61","Chrome",91,957,1903,1080,1920,"q"," -- select an option -- ",NA,"I had to press Q for no change and P for changes. I would then rate how sure I was. It was 108 videos that I would watch once and decide if the shape coming out the other side was the same or not.","To see if you can see slight differences, quickly.","Everything worked really well.",1425793.1,"no_change","same","shape4_no_change3",1,1,"none"
"167","shape2","no_change2",6,58,"same",9,1675.4,"56bd0347d4e218000ca87e53","ducktruck","v001",1411265.7,"60e37abdc60a8398fd63c9e4","60ef2379c3b5d55b8c8aaa61","Chrome",91,957,1903,1080,1920,"q"," -- select an option -- ",NA,"I had to press Q for no change and P for changes. I would then rate how sure I was. It was 108 videos that I would watch once and decide if the shape coming out the other side was the same or not.","To see if you can see slight differences, quickly.","Everything worked really well.",1425793.1,"no_change","same","shape2_no_change2",1,1,"none"
"168","shape7","no_change4",6,59,"same",8,1268,"56bd0347d4e218000ca87e53","ducktruck","v001",1411265.7,"60e37abdc60a8398fd63c9e4","60ef2379c3b5d55b8c8aaa61","Chrome",91,957,1903,1080,1920,"q"," -- select an option -- ",NA,"I had to press Q for no change and P for changes. I would then rate how sure I was. It was 108 videos that I would watch once and decide if the shape coming out the other side was the same or not.","To see if you can see slight differences, quickly.","Everything worked really well.",1425793.1,"no_change","same","shape7_no_change4",1,1,"none"
"169","shape3","no_change3",6,60,"same",7,1632.9,"56bd0347d4e218000ca87e53","ducktruck","v001",1411265.7,"60e37abdc60a8398fd63c9e4","60ef2379c3b5d55b8c8aaa61","Chrome",91,957,1903,1080,1920,"q"," -- select an option -- ",NA,"I had to press Q for no change and P for changes. I would then rate how sure I was. It was 108 videos that I would watch once and decide if the shape coming out the other side was the same or not.","To see if you can see slight differences, quickly.","Everything worked really well.",1425793.1,"no_change","same","shape3_no_change3",1,1,"none"
"170","shape1","convex_area1",6,61,"different",6,1500.3,"56bd0347d4e218000ca87e53","ducktruck","v001",1411265.7,"60e37abdc60a8398fd63c9e4","60ef2379c3b5d55b8c8aaa61","Chrome",91,957,1903,1080,1920,"q"," -- select an option -- ",NA,"I had to press Q for no change and P for changes. I would then rate how sure I was. It was 108 videos that I would watch once and decide if the shape coming out the other side was the same or not.","To see if you can see slight differences, quickly.","Everything worked really well.",1425793.1,"convex_area1","different","shape1_convex_area1",1,1,"convex"
"171","shape6","no_change3",6,62,"same",6,1364.5,"56bd0347d4e218000ca87e53","ducktruck","v001",1411265.7,"60e37abdc60a8398fd63c9e4","60ef2379c3b5d55b8c8aaa61","Chrome",91,957,1903,1080,1920,"q"," -- select an option -- ",NA,"I had to press Q for no change and P for changes. I would then rate how sure I was. It was 108 videos that I would watch once and decide if the shape coming out the other side was the same or not.","To see if you can see slight differences, quickly.","Everything worked really well.",1425793.1,"no_change","same","shape6_no_change3",1,1,"none"
