shape,changeType,blockNum,trialID,response,confidence,rt,subjectID,experimentName,experimentVersion,experimentTime,studyID,sessionID,browserName,browserVersion,displayWindowHeight,displayWindowWidth,displayScreenHeight,displayScreenWidth,change_key,gender,age,taskGuess,purposeGuess,commentText,totalTime,collapsedChange,correctAnswer,fullShapeName,responded_correctly,count,analysisChangeType
shape3,no_change2,0,0,same,9,9077.0,55b6a2e5fdf99b350d57360e,ducktruck,v001,1037420.0,60e37abdc60a8398fd63c9e4,60ef12f12c286ba9fa30ee2f,Firefox,89,1347,2560,1440,2560,q, -- select an option -- ,,"Click q if you noticed no change between the shape at the start and at the end, click p if you did notice a change. Rate your confidence level on a scale of 1-9.","To see how good people are at perceiving small changes, maybe based on color, speed between observations. ",Worked fine.,1060291.0,no_change,same,shape3_no_change2,1,1,none
shape1,no_change1,0,1,same,9,3606.0,55b6a2e5fdf99b350d57360e,ducktruck,v001,1037420.0,60e37abdc60a8398fd63c9e4,60ef12f12c286ba9fa30ee2f,Firefox,89,1347,2560,1440,2560,q, -- select an option -- ,,"Click q if you noticed no change between the shape at the start and at the end, click p if you did notice a change. Rate your confidence level on a scale of 1-9.","To see how good people are at perceiving small changes, maybe based on color, speed between observations. ",Worked fine.,1060291.0,no_change,same,shape1_no_change1,1,1,none
shape5,no_change3,0,2,same,8,2494.0,55b6a2e5fdf99b350d57360e,ducktruck,v001,1037420.0,60e37abdc60a8398fd63c9e4,60ef12f12c286ba9fa30ee2f,Firefox,89,1347,2560,1440,2560,q, -- select an option -- ,,"Click q if you noticed no change between the shape at the start and at the end, click p if you did notice a change. Rate your confidence level on a scale of 1-9.","To see how good people are at perceiving small changes, maybe based on color, speed between observations. ",Worked fine.,1060291.0,no_change,same,shape5_no_change3,1,1,none
shape6,no_change1,0,3,same,8,4671.0,55b6a2e5fdf99b350d57360e,ducktruck,v001,1037420.0,60e37abdc60a8398fd63c9e4,60ef12f12c286ba9fa30ee2f,Firefox,89,1347,2560,1440,2560,q, -- select an option -- ,,"Click q if you noticed no change between the shape at the start and at the end, click p if you did notice a change. Rate your confidence level on a scale of 1-9.","To see how good people are at perceiving small changes, maybe based on color, speed between observations. ",Worked fine.,1060291.0,no_change,same,shape6_no_change1,1,1,none
shape2,no_change2,0,4,same,8,2797.0,55b6a2e5fdf99b350d57360e,ducktruck,v001,1037420.0,60e37abdc60a8398fd63c9e4,60ef12f12c286ba9fa30ee2f,Firefox,89,1347,2560,1440,2560,q, -- select an option -- ,,"Click q if you noticed no change between the shape at the start and at the end, click p if you did notice a change. Rate your confidence level on a scale of 1-9.","To see how good people are at perceiving small changes, maybe based on color, speed between observations. ",Worked fine.,1060291.0,no_change,same,shape2_no_change2,1,1,none
shape7,no_change3,0,5,same,8,3221.0,55b6a2e5fdf99b350d57360e,ducktruck,v001,1037420.0,60e37abdc60a8398fd63c9e4,60ef12f12c286ba9fa30ee2f,Firefox,89,1347,2560,1440,2560,q, -- select an option -- ,,"Click q if you noticed no change between the shape at the start and at the end, click p if you did notice a change. Rate your confidence level on a scale of 1-9.","To see how good people are at perceiving small changes, maybe based on color, speed between observations. ",Worked fine.,1060291.0,no_change,same,shape7_no_change3,1,1,none
shape8,no_change3,0,6,same,9,5870.0,55b6a2e5fdf99b350d57360e,ducktruck,v001,1037420.0,60e37abdc60a8398fd63c9e4,60ef12f12c286ba9fa30ee2f,Firefox,89,1347,2560,1440,2560,q, -- select an option -- ,,"Click q if you noticed no change between the shape at the start and at the end, click p if you did notice a change. Rate your confidence level on a scale of 1-9.","To see how good people are at perceiving small changes, maybe based on color, speed between observations. ",Worked fine.,1060291.0,no_change,same,shape8_no_change3,1,1,none
shape4,no_change4,0,7,same,8,2919.0,55b6a2e5fdf99b350d57360e,ducktruck,v001,1037420.0,60e37abdc60a8398fd63c9e4,60ef12f12c286ba9fa30ee2f,Firefox,89,1347,2560,1440,2560,q, -- select an option -- ,,"Click q if you noticed no change between the shape at the start and at the end, click p if you did notice a change. Rate your confidence level on a scale of 1-9.","To see how good people are at perceiving small changes, maybe based on color, speed between observations. ",Worked fine.,1060291.0,no_change,same,shape4_no_change4,1,1,none
catch_shape,no_change5,0,8,same,9,2295.0,55b6a2e5fdf99b350d57360e,ducktruck,v001,1037420.0,60e37abdc60a8398fd63c9e4,60ef12f12c286ba9fa30ee2f,Firefox,89,1347,2560,1440,2560,q, -- select an option -- ,,"Click q if you noticed no change between the shape at the start and at the end, click p if you did notice a change. Rate your confidence level on a scale of 1-9.","To see how good people are at perceiving small changes, maybe based on color, speed between observations. ",Worked fine.,1060291.0,no_change,same,catch_shape_no_change5,1,1,none
shape7,no_change1,1,9,same,7,5517.0,55b6a2e5fdf99b350d57360e,ducktruck,v001,1037420.0,60e37abdc60a8398fd63c9e4,60ef12f12c286ba9fa30ee2f,Firefox,89,1347,2560,1440,2560,q, -- select an option -- ,,"Click q if you noticed no change between the shape at the start and at the end, click p if you did notice a change. Rate your confidence level on a scale of 1-9.","To see how good people are at perceiving small changes, maybe based on color, speed between observations. ",Worked fine.,1060291.0,no_change,same,shape7_no_change1,1,1,none
shape1,no_change2,1,10,same,8,2645.0,55b6a2e5fdf99b350d57360e,ducktruck,v001,1037420.0,60e37abdc60a8398fd63c9e4,60ef12f12c286ba9fa30ee2f,Firefox,89,1347,2560,1440,2560,q, -- select an option -- ,,"Click q if you noticed no change between the shape at the start and at the end, click p if you did notice a change. Rate your confidence level on a scale of 1-9.","To see how good people are at perceiving small changes, maybe based on color, speed between observations. ",Worked fine.,1060291.0,no_change,same,shape1_no_change2,1,1,none
shape3,concave_area2,1,11,same,8,3551.0,55b6a2e5fdf99b350d57360e,ducktruck,v001,1037420.0,60e37abdc60a8398fd63c9e4,60ef12f12c286ba9fa30ee2f,Firefox,89,1347,2560,1440,2560,q, -- select an option -- ,,"Click q if you noticed no change between the shape at the start and at the end, click p if you did notice a change. Rate your confidence level on a scale of 1-9.","To see how good people are at perceiving small changes, maybe based on color, speed between observations. ",Worked fine.,1060291.0,concave_area2,different,shape3_concave_area2,0,1,concave
shape2,no_change6,1,12,different,7,6142.0,55b6a2e5fdf99b350d57360e,ducktruck,v001,1037420.0,60e37abdc60a8398fd63c9e4,60ef12f12c286ba9fa30ee2f,Firefox,89,1347,2560,1440,2560,q, -- select an option -- ,,"Click q if you noticed no change between the shape at the start and at the end, click p if you did notice a change. Rate your confidence level on a scale of 1-9.","To see how good people are at perceiving small changes, maybe based on color, speed between observations. ",Worked fine.,1060291.0,no_change,same,shape2_no_change6,0,1,none
shape5,no_change5,1,13,different,7,3935.0,55b6a2e5fdf99b350d57360e,ducktruck,v001,1037420.0,60e37abdc60a8398fd63c9e4,60ef12f12c286ba9fa30ee2f,Firefox,89,1347,2560,1440,2560,q, -- select an option -- ,,"Click q if you noticed no change between the shape at the start and at the end, click p if you did notice a change. Rate your confidence level on a scale of 1-9.","To see how good people are at perceiving small changes, maybe based on color, speed between observations. ",Worked fine.,1060291.0,no_change,same,shape5_no_change5,0,1,none
shape4,no_change6,1,14,same,8,1830.0,55b6a2e5fdf99b350d57360e,ducktruck,v001,1037420.0,60e37abdc60a8398fd63c9e4,60ef12f12c286ba9fa30ee2f,Firefox,89,1347,2560,1440,2560,q, -- select an option -- ,,"Click q if you noticed no change between the shape at the start and at the end, click p if you did notice a change. Rate your confidence level on a scale of 1-9.","To see how good people are at perceiving small changes, maybe based on color, speed between observations. ",Worked fine.,1060291.0,no_change,same,shape4_no_change6,1,1,none
catch_shape,no_change3,1,15,same,9,2135.0,55b6a2e5fdf99b350d57360e,ducktruck,v001,1037420.0,60e37abdc60a8398fd63c9e4,60ef12f12c286ba9fa30ee2f,Firefox,89,1347,2560,1440,2560,q, -- select an option -- ,,"Click q if you noticed no change between the shape at the start and at the end, click p if you did notice a change. Rate your confidence level on a scale of 1-9.","To see how good people are at perceiving small changes, maybe based on color, speed between observations. ",Worked fine.,1060291.0,no_change,same,catch_shape_no_change3,1,1,none
shape6,no_change6,1,16,same,7,4655.0,55b6a2e5fdf99b350d57360e,ducktruck,v001,1037420.0,60e37abdc60a8398fd63c9e4,60ef12f12c286ba9fa30ee2f,Firefox,89,1347,2560,1440,2560,q, -- select an option -- ,,"Click q if you noticed no change between the shape at the start and at the end, click p if you did notice a change. Rate your confidence level on a scale of 1-9.","To see how good people are at perceiving small changes, maybe based on color, speed between observations. ",Worked fine.,1060291.0,no_change,same,shape6_no_change6,1,1,none
shape8,no_change1,1,17,same,8,2278.0,55b6a2e5fdf99b350d57360e,ducktruck,v001,1037420.0,60e37abdc60a8398fd63c9e4,60ef12f12c286ba9fa30ee2f,Firefox,89,1347,2560,1440,2560,q, -- select an option -- ,,"Click q if you noticed no change between the shape at the start and at the end, click p if you did notice a change. Rate your confidence level on a scale of 1-9.","To see how good people are at perceiving small changes, maybe based on color, speed between observations. ",Worked fine.,1060291.0,no_change,same,shape8_no_change1,1,1,none
shape1,no_change3,2,18,same,8,3334.0,55b6a2e5fdf99b350d57360e,ducktruck,v001,1037420.0,60e37abdc60a8398fd63c9e4,60ef12f12c286ba9fa30ee2f,Firefox,89,1347,2560,1440,2560,q, -- select an option -- ,,"Click q if you noticed no change between the shape at the start and at the end, click p if you did notice a change. Rate your confidence level on a scale of 1-9.","To see how good people are at perceiving small changes, maybe based on color, speed between observations. ",Worked fine.,1060291.0,no_change,same,shape1_no_change3,1,1,none
shape2,no_change4,2,19,different,8,2478.0,55b6a2e5fdf99b350d57360e,ducktruck,v001,1037420.0,60e37abdc60a8398fd63c9e4,60ef12f12c286ba9fa30ee2f,Firefox,89,1347,2560,1440,2560,q, -- select an option -- ,,"Click q if you noticed no change between the shape at the start and at the end, click p if you did notice a change. Rate your confidence level on a scale of 1-9.","To see how good people are at perceiving small changes, maybe based on color, speed between observations. ",Worked fine.,1060291.0,no_change,same,shape2_no_change4,0,1,none
shape3,no_change4,2,20,different,5,2022.0,55b6a2e5fdf99b350d57360e,ducktruck,v001,1037420.0,60e37abdc60a8398fd63c9e4,60ef12f12c286ba9fa30ee2f,Firefox,89,1347,2560,1440,2560,q, -- select an option -- ,,"Click q if you noticed no change between the shape at the start and at the end, click p if you did notice a change. Rate your confidence level on a scale of 1-9.","To see how good people are at perceiving small changes, maybe based on color, speed between observations. ",Worked fine.,1060291.0,no_change,same,shape3_no_change4,0,1,none
shape7,no_change2,2,21,different,6,2118.0,55b6a2e5fdf99b350d57360e,ducktruck,v001,1037420.0,60e37abdc60a8398fd63c9e4,60ef12f12c286ba9fa30ee2f,Firefox,89,1347,2560,1440,2560,q, -- select an option -- ,,"Click q if you noticed no change between the shape at the start and at the end, click p if you did notice a change. Rate your confidence level on a scale of 1-9.","To see how good people are at perceiving small changes, maybe based on color, speed between observations. ",Worked fine.,1060291.0,no_change,same,shape7_no_change2,0,1,none
shape4,no_change2,2,22,same,6,2998.0,55b6a2e5fdf99b350d57360e,ducktruck,v001,1037420.0,60e37abdc60a8398fd63c9e4,60ef12f12c286ba9fa30ee2f,Firefox,89,1347,2560,1440,2560,q, -- select an option -- ,,"Click q if you noticed no change between the shape at the start and at the end, click p if you did notice a change. Rate your confidence level on a scale of 1-9.","To see how good people are at perceiving small changes, maybe based on color, speed between observations. ",Worked fine.,1060291.0,no_change,same,shape4_no_change2,1,1,none
shape6,no_change3,2,23,different,5,3463.0,55b6a2e5fdf99b350d57360e,ducktruck,v001,1037420.0,60e37abdc60a8398fd63c9e4,60ef12f12c286ba9fa30ee2f,Firefox,89,1347,2560,1440,2560,q, -- select an option -- ,,"Click q if you noticed no change between the shape at the start and at the end, click p if you did notice a change. Rate your confidence level on a scale of 1-9.","To see how good people are at perceiving small changes, maybe based on color, speed between observations. ",Worked fine.,1060291.0,no_change,same,shape6_no_change3,0,1,none
shape5,no_change2,2,24,different,5,2272.0,55b6a2e5fdf99b350d57360e,ducktruck,v001,1037420.0,60e37abdc60a8398fd63c9e4,60ef12f12c286ba9fa30ee2f,Firefox,89,1347,2560,1440,2560,q, -- select an option -- ,,"Click q if you noticed no change between the shape at the start and at the end, click p if you did notice a change. Rate your confidence level on a scale of 1-9.","To see how good people are at perceiving small changes, maybe based on color, speed between observations. ",Worked fine.,1060291.0,no_change,same,shape5_no_change2,0,1,none
catch_shape,no_change2,2,25,same,8,4007.0,55b6a2e5fdf99b350d57360e,ducktruck,v001,1037420.0,60e37abdc60a8398fd63c9e4,60ef12f12c286ba9fa30ee2f,Firefox,89,1347,2560,1440,2560,q, -- select an option -- ,,"Click q if you noticed no change between the shape at the start and at the end, click p if you did notice a change. Rate your confidence level on a scale of 1-9.","To see how good people are at perceiving small changes, maybe based on color, speed between observations. ",Worked fine.,1060291.0,no_change,same,catch_shape_no_change2,1,1,none
shape8,no_change2,2,26,different,5,1366.0,55b6a2e5fdf99b350d57360e,ducktruck,v001,1037420.0,60e37abdc60a8398fd63c9e4,60ef12f12c286ba9fa30ee2f,Firefox,89,1347,2560,1440,2560,q, -- select an option -- ,,"Click q if you noticed no change between the shape at the start and at the end, click p if you did notice a change. Rate your confidence level on a scale of 1-9.","To see how good people are at perceiving small changes, maybe based on color, speed between observations. ",Worked fine.,1060291.0,no_change,same,shape8_no_change2,0,1,none
shape2,no_change3,3,27,different,4,2710.0,55b6a2e5fdf99b350d57360e,ducktruck,v001,1037420.0,60e37abdc60a8398fd63c9e4,60ef12f12c286ba9fa30ee2f,Firefox,89,1347,2560,1440,2560,q, -- select an option -- ,,"Click q if you noticed no change between the shape at the start and at the end, click p if you did notice a change. Rate your confidence level on a scale of 1-9.","To see how good people are at perceiving small changes, maybe based on color, speed between observations. ",Worked fine.,1060291.0,no_change,same,shape2_no_change3,0,1,none
shape4,no_change3,3,28,same,8,1526.0,55b6a2e5fdf99b350d57360e,ducktruck,v001,1037420.0,60e37abdc60a8398fd63c9e4,60ef12f12c286ba9fa30ee2f,Firefox,89,1347,2560,1440,2560,q, -- select an option -- ,,"Click q if you noticed no change between the shape at the start and at the end, click p if you did notice a change. Rate your confidence level on a scale of 1-9.","To see how good people are at perceiving small changes, maybe based on color, speed between observations. ",Worked fine.,1060291.0,no_change,same,shape4_no_change3,1,1,none
shape7,no_change4,3,29,different,9,2214.0,55b6a2e5fdf99b350d57360e,ducktruck,v001,1037420.0,60e37abdc60a8398fd63c9e4,60ef12f12c286ba9fa30ee2f,Firefox,89,1347,2560,1440,2560,q, -- select an option -- ,,"Click q if you noticed no change between the shape at the start and at the end, click p if you did notice a change. Rate your confidence level on a scale of 1-9.","To see how good people are at perceiving small changes, maybe based on color, speed between observations. ",Worked fine.,1060291.0,no_change,same,shape7_no_change4,0,1,none
shape5,concave_nofill_area1,3,30,different,8,1615.0,55b6a2e5fdf99b350d57360e,ducktruck,v001,1037420.0,60e37abdc60a8398fd63c9e4,60ef12f12c286ba9fa30ee2f,Firefox,89,1347,2560,1440,2560,q, -- select an option -- ,,"Click q if you noticed no change between the shape at the start and at the end, click p if you did notice a change. Rate your confidence level on a scale of 1-9.","To see how good people are at perceiving small changes, maybe based on color, speed between observations. ",Worked fine.,1060291.0,concave_nofill_area1,different,shape5_concave_nofill_area1,1,1,concave_nofill
shape6,no_change2,3,31,same,8,1871.0,55b6a2e5fdf99b350d57360e,ducktruck,v001,1037420.0,60e37abdc60a8398fd63c9e4,60ef12f12c286ba9fa30ee2f,Firefox,89,1347,2560,1440,2560,q, -- select an option -- ,,"Click q if you noticed no change between the shape at the start and at the end, click p if you did notice a change. Rate your confidence level on a scale of 1-9.","To see how good people are at perceiving small changes, maybe based on color, speed between observations. ",Worked fine.,1060291.0,no_change,same,shape6_no_change2,1,1,none
shape8,concave_area1,3,32,different,8,3814.0,55b6a2e5fdf99b350d57360e,ducktruck,v001,1037420.0,60e37abdc60a8398fd63c9e4,60ef12f12c286ba9fa30ee2f,Firefox,89,1347,2560,1440,2560,q, -- select an option -- ,,"Click q if you noticed no change between the shape at the start and at the end, click p if you did notice a change. Rate your confidence level on a scale of 1-9.","To see how good people are at perceiving small changes, maybe based on color, speed between observations. ",Worked fine.,1060291.0,concave_area1,different,shape8_concave_area1,1,1,concave
catch_shape,change1,3,33,different,9,1790.0,55b6a2e5fdf99b350d57360e,ducktruck,v001,1037420.0,60e37abdc60a8398fd63c9e4,60ef12f12c286ba9fa30ee2f,Firefox,89,1347,2560,1440,2560,q, -- select an option -- ,,"Click q if you noticed no change between the shape at the start and at the end, click p if you did notice a change. Rate your confidence level on a scale of 1-9.","To see how good people are at perceiving small changes, maybe based on color, speed between observations. ",Worked fine.,1060291.0,change1,different,catch_shape_change1,1,1,none
shape1,no_change4,3,34,same,8,3286.0,55b6a2e5fdf99b350d57360e,ducktruck,v001,1037420.0,60e37abdc60a8398fd63c9e4,60ef12f12c286ba9fa30ee2f,Firefox,89,1347,2560,1440,2560,q, -- select an option -- ,,"Click q if you noticed no change between the shape at the start and at the end, click p if you did notice a change. Rate your confidence level on a scale of 1-9.","To see how good people are at perceiving small changes, maybe based on color, speed between observations. ",Worked fine.,1060291.0,no_change,same,shape1_no_change4,1,1,none
shape3,no_change1,3,35,same,9,4422.0,55b6a2e5fdf99b350d57360e,ducktruck,v001,1037420.0,60e37abdc60a8398fd63c9e4,60ef12f12c286ba9fa30ee2f,Firefox,89,1347,2560,1440,2560,q, -- select an option -- ,,"Click q if you noticed no change between the shape at the start and at the end, click p if you did notice a change. Rate your confidence level on a scale of 1-9.","To see how good people are at perceiving small changes, maybe based on color, speed between observations. ",Worked fine.,1060291.0,no_change,same,shape3_no_change1,1,1,none
catch_shape,change4,4,36,different,9,1917.0,55b6a2e5fdf99b350d57360e,ducktruck,v001,1037420.0,60e37abdc60a8398fd63c9e4,60ef12f12c286ba9fa30ee2f,Firefox,89,1347,2560,1440,2560,q, -- select an option -- ,,"Click q if you noticed no change between the shape at the start and at the end, click p if you did notice a change. Rate your confidence level on a scale of 1-9.","To see how good people are at perceiving small changes, maybe based on color, speed between observations. ",Worked fine.,1060291.0,change4,different,catch_shape_change4,1,1,none
shape6,concave_area1,4,37,same,8,3647.0,55b6a2e5fdf99b350d57360e,ducktruck,v001,1037420.0,60e37abdc60a8398fd63c9e4,60ef12f12c286ba9fa30ee2f,Firefox,89,1347,2560,1440,2560,q, -- select an option -- ,,"Click q if you noticed no change between the shape at the start and at the end, click p if you did notice a change. Rate your confidence level on a scale of 1-9.","To see how good people are at perceiving small changes, maybe based on color, speed between observations. ",Worked fine.,1060291.0,concave_area1,different,shape6_concave_area1,0,1,concave
shape2,no_change1,4,38,different,7,1542.0,55b6a2e5fdf99b350d57360e,ducktruck,v001,1037420.0,60e37abdc60a8398fd63c9e4,60ef12f12c286ba9fa30ee2f,Firefox,89,1347,2560,1440,2560,q, -- select an option -- ,,"Click q if you noticed no change between the shape at the start and at the end, click p if you did notice a change. Rate your confidence level on a scale of 1-9.","To see how good people are at perceiving small changes, maybe based on color, speed between observations. ",Worked fine.,1060291.0,no_change,same,shape2_no_change1,0,1,none
shape1,concave_area2,4,39,same,8,2366.0,55b6a2e5fdf99b350d57360e,ducktruck,v001,1037420.0,60e37abdc60a8398fd63c9e4,60ef12f12c286ba9fa30ee2f,Firefox,89,1347,2560,1440,2560,q, -- select an option -- ,,"Click q if you noticed no change between the shape at the start and at the end, click p if you did notice a change. Rate your confidence level on a scale of 1-9.","To see how good people are at perceiving small changes, maybe based on color, speed between observations. ",Worked fine.,1060291.0,concave_area2,different,shape1_concave_area2,0,1,concave
shape5,no_change1,4,40,same,9,1717.0,55b6a2e5fdf99b350d57360e,ducktruck,v001,1037420.0,60e37abdc60a8398fd63c9e4,60ef12f12c286ba9fa30ee2f,Firefox,89,1347,2560,1440,2560,q, -- select an option -- ,,"Click q if you noticed no change between the shape at the start and at the end, click p if you did notice a change. Rate your confidence level on a scale of 1-9.","To see how good people are at perceiving small changes, maybe based on color, speed between observations. ",Worked fine.,1060291.0,no_change,same,shape5_no_change1,1,1,none
shape3,convex_area1,4,41,same,8,2757.0,55b6a2e5fdf99b350d57360e,ducktruck,v001,1037420.0,60e37abdc60a8398fd63c9e4,60ef12f12c286ba9fa30ee2f,Firefox,89,1347,2560,1440,2560,q, -- select an option -- ,,"Click q if you noticed no change between the shape at the start and at the end, click p if you did notice a change. Rate your confidence level on a scale of 1-9.","To see how good people are at perceiving small changes, maybe based on color, speed between observations. ",Worked fine.,1060291.0,convex_area1,different,shape3_convex_area1,0,1,convex
shape4,no_change1,4,42,same,9,1438.0,55b6a2e5fdf99b350d57360e,ducktruck,v001,1037420.0,60e37abdc60a8398fd63c9e4,60ef12f12c286ba9fa30ee2f,Firefox,89,1347,2560,1440,2560,q, -- select an option -- ,,"Click q if you noticed no change between the shape at the start and at the end, click p if you did notice a change. Rate your confidence level on a scale of 1-9.","To see how good people are at perceiving small changes, maybe based on color, speed between observations. ",Worked fine.,1060291.0,no_change,same,shape4_no_change1,1,1,none
shape7,no_change6,4,43,same,7,2447.0,55b6a2e5fdf99b350d57360e,ducktruck,v001,1037420.0,60e37abdc60a8398fd63c9e4,60ef12f12c286ba9fa30ee2f,Firefox,89,1347,2560,1440,2560,q, -- select an option -- ,,"Click q if you noticed no change between the shape at the start and at the end, click p if you did notice a change. Rate your confidence level on a scale of 1-9.","To see how good people are at perceiving small changes, maybe based on color, speed between observations. ",Worked fine.,1060291.0,no_change,same,shape7_no_change6,1,1,none
shape8,no_change5,4,44,same,9,1455.0,55b6a2e5fdf99b350d57360e,ducktruck,v001,1037420.0,60e37abdc60a8398fd63c9e4,60ef12f12c286ba9fa30ee2f,Firefox,89,1347,2560,1440,2560,q, -- select an option -- ,,"Click q if you noticed no change between the shape at the start and at the end, click p if you did notice a change. Rate your confidence level on a scale of 1-9.","To see how good people are at perceiving small changes, maybe based on color, speed between observations. ",Worked fine.,1060291.0,no_change,same,shape8_no_change5,1,1,none
shape2,no_change5,5,45,different,8,1223.0,55b6a2e5fdf99b350d57360e,ducktruck,v001,1037420.0,60e37abdc60a8398fd63c9e4,60ef12f12c286ba9fa30ee2f,Firefox,89,1347,2560,1440,2560,q, -- select an option -- ,,"Click q if you noticed no change between the shape at the start and at the end, click p if you did notice a change. Rate your confidence level on a scale of 1-9.","To see how good people are at perceiving small changes, maybe based on color, speed between observations. ",Worked fine.,1060291.0,no_change,same,shape2_no_change5,0,1,none
shape1,concave_area1,5,46,same,8,1910.0,55b6a2e5fdf99b350d57360e,ducktruck,v001,1037420.0,60e37abdc60a8398fd63c9e4,60ef12f12c286ba9fa30ee2f,Firefox,89,1347,2560,1440,2560,q, -- select an option -- ,,"Click q if you noticed no change between the shape at the start and at the end, click p if you did notice a change. Rate your confidence level on a scale of 1-9.","To see how good people are at perceiving small changes, maybe based on color, speed between observations. ",Worked fine.,1060291.0,concave_area1,different,shape1_concave_area1,0,1,concave
shape3,no_change3,5,47,same,9,1958.0,55b6a2e5fdf99b350d57360e,ducktruck,v001,1037420.0,60e37abdc60a8398fd63c9e4,60ef12f12c286ba9fa30ee2f,Firefox,89,1347,2560,1440,2560,q, -- select an option -- ,,"Click q if you noticed no change between the shape at the start and at the end, click p if you did notice a change. Rate your confidence level on a scale of 1-9.","To see how good people are at perceiving small changes, maybe based on color, speed between observations. ",Worked fine.,1060291.0,no_change,same,shape3_no_change3,1,1,none
shape5,convex_area1,5,48,different,3,2494.0,55b6a2e5fdf99b350d57360e,ducktruck,v001,1037420.0,60e37abdc60a8398fd63c9e4,60ef12f12c286ba9fa30ee2f,Firefox,89,1347,2560,1440,2560,q, -- select an option -- ,,"Click q if you noticed no change between the shape at the start and at the end, click p if you did notice a change. Rate your confidence level on a scale of 1-9.","To see how good people are at perceiving small changes, maybe based on color, speed between observations. ",Worked fine.,1060291.0,convex_area1,different,shape5_convex_area1,1,1,convex
shape4,no_change5,5,49,same,9,1141.0,55b6a2e5fdf99b350d57360e,ducktruck,v001,1037420.0,60e37abdc60a8398fd63c9e4,60ef12f12c286ba9fa30ee2f,Firefox,89,1347,2560,1440,2560,q, -- select an option -- ,,"Click q if you noticed no change between the shape at the start and at the end, click p if you did notice a change. Rate your confidence level on a scale of 1-9.","To see how good people are at perceiving small changes, maybe based on color, speed between observations. ",Worked fine.,1060291.0,no_change,same,shape4_no_change5,1,1,none
catch_shape,no_change1,5,50,same,9,1287.0,55b6a2e5fdf99b350d57360e,ducktruck,v001,1037420.0,60e37abdc60a8398fd63c9e4,60ef12f12c286ba9fa30ee2f,Firefox,89,1347,2560,1440,2560,q, -- select an option -- ,,"Click q if you noticed no change between the shape at the start and at the end, click p if you did notice a change. Rate your confidence level on a scale of 1-9.","To see how good people are at perceiving small changes, maybe based on color, speed between observations. ",Worked fine.,1060291.0,no_change,same,catch_shape_no_change1,1,1,none
shape6,concave_nofill_area1,5,51,different,4,1829.0,55b6a2e5fdf99b350d57360e,ducktruck,v001,1037420.0,60e37abdc60a8398fd63c9e4,60ef12f12c286ba9fa30ee2f,Firefox,89,1347,2560,1440,2560,q, -- select an option -- ,,"Click q if you noticed no change between the shape at the start and at the end, click p if you did notice a change. Rate your confidence level on a scale of 1-9.","To see how good people are at perceiving small changes, maybe based on color, speed between observations. ",Worked fine.,1060291.0,concave_nofill_area1,different,shape6_concave_nofill_area1,1,1,concave_nofill
shape8,no_change4,5,52,same,9,1335.0,55b6a2e5fdf99b350d57360e,ducktruck,v001,1037420.0,60e37abdc60a8398fd63c9e4,60ef12f12c286ba9fa30ee2f,Firefox,89,1347,2560,1440,2560,q, -- select an option -- ,,"Click q if you noticed no change between the shape at the start and at the end, click p if you did notice a change. Rate your confidence level on a scale of 1-9.","To see how good people are at perceiving small changes, maybe based on color, speed between observations. ",Worked fine.,1060291.0,no_change,same,shape8_no_change4,1,1,none
shape7,no_change5,5,53,different,6,1293.0,55b6a2e5fdf99b350d57360e,ducktruck,v001,1037420.0,60e37abdc60a8398fd63c9e4,60ef12f12c286ba9fa30ee2f,Firefox,89,1347,2560,1440,2560,q, -- select an option -- ,,"Click q if you noticed no change between the shape at the start and at the end, click p if you did notice a change. Rate your confidence level on a scale of 1-9.","To see how good people are at perceiving small changes, maybe based on color, speed between observations. ",Worked fine.,1060291.0,no_change,same,shape7_no_change5,0,1,none
shape3,no_change6,6,54,different,6,1222.0,55b6a2e5fdf99b350d57360e,ducktruck,v001,1037420.0,60e37abdc60a8398fd63c9e4,60ef12f12c286ba9fa30ee2f,Firefox,89,1347,2560,1440,2560,q, -- select an option -- ,,"Click q if you noticed no change between the shape at the start and at the end, click p if you did notice a change. Rate your confidence level on a scale of 1-9.","To see how good people are at perceiving small changes, maybe based on color, speed between observations. ",Worked fine.,1060291.0,no_change,same,shape3_no_change6,0,1,none
shape4,concave_nofill_area1,6,55,different,9,1893.0,55b6a2e5fdf99b350d57360e,ducktruck,v001,1037420.0,60e37abdc60a8398fd63c9e4,60ef12f12c286ba9fa30ee2f,Firefox,89,1347,2560,1440,2560,q, -- select an option -- ,,"Click q if you noticed no change between the shape at the start and at the end, click p if you did notice a change. Rate your confidence level on a scale of 1-9.","To see how good people are at perceiving small changes, maybe based on color, speed between observations. ",Worked fine.,1060291.0,concave_nofill_area1,different,shape4_concave_nofill_area1,1,1,concave_nofill
shape8,concave_nofill_area1,6,56,different,9,1207.0,55b6a2e5fdf99b350d57360e,ducktruck,v001,1037420.0,60e37abdc60a8398fd63c9e4,60ef12f12c286ba9fa30ee2f,Firefox,89,1347,2560,1440,2560,q, -- select an option -- ,,"Click q if you noticed no change between the shape at the start and at the end, click p if you did notice a change. Rate your confidence level on a scale of 1-9.","To see how good people are at perceiving small changes, maybe based on color, speed between observations. ",Worked fine.,1060291.0,concave_nofill_area1,different,shape8_concave_nofill_area1,1,1,concave_nofill
shape2,convex_area1,6,57,different,8,1133.0,55b6a2e5fdf99b350d57360e,ducktruck,v001,1037420.0,60e37abdc60a8398fd63c9e4,60ef12f12c286ba9fa30ee2f,Firefox,89,1347,2560,1440,2560,q, -- select an option -- ,,"Click q if you noticed no change between the shape at the start and at the end, click p if you did notice a change. Rate your confidence level on a scale of 1-9.","To see how good people are at perceiving small changes, maybe based on color, speed between observations. ",Worked fine.,1060291.0,convex_area1,different,shape2_convex_area1,1,1,convex
shape1,no_change6,6,58,same,8,2582.0,55b6a2e5fdf99b350d57360e,ducktruck,v001,1037420.0,60e37abdc60a8398fd63c9e4,60ef12f12c286ba9fa30ee2f,Firefox,89,1347,2560,1440,2560,q, -- select an option -- ,,"Click q if you noticed no change between the shape at the start and at the end, click p if you did notice a change. Rate your confidence level on a scale of 1-9.","To see how good people are at perceiving small changes, maybe based on color, speed between observations. ",Worked fine.,1060291.0,no_change,same,shape1_no_change6,1,1,none
shape5,no_change6,6,59,different,7,1078.0,55b6a2e5fdf99b350d57360e,ducktruck,v001,1037420.0,60e37abdc60a8398fd63c9e4,60ef12f12c286ba9fa30ee2f,Firefox,89,1347,2560,1440,2560,q, -- select an option -- ,,"Click q if you noticed no change between the shape at the start and at the end, click p if you did notice a change. Rate your confidence level on a scale of 1-9.","To see how good people are at perceiving small changes, maybe based on color, speed between observations. ",Worked fine.,1060291.0,no_change,same,shape5_no_change6,0,1,none
catch_shape,change5,6,60,different,9,877.0,55b6a2e5fdf99b350d57360e,ducktruck,v001,1037420.0,60e37abdc60a8398fd63c9e4,60ef12f12c286ba9fa30ee2f,Firefox,89,1347,2560,1440,2560,q, -- select an option -- ,,"Click q if you noticed no change between the shape at the start and at the end, click p if you did notice a change. Rate your confidence level on a scale of 1-9.","To see how good people are at perceiving small changes, maybe based on color, speed between observations. ",Worked fine.,1060291.0,change5,different,catch_shape_change5,1,1,none
shape6,no_change5,6,61,same,9,1093.0,55b6a2e5fdf99b350d57360e,ducktruck,v001,1037420.0,60e37abdc60a8398fd63c9e4,60ef12f12c286ba9fa30ee2f,Firefox,89,1347,2560,1440,2560,q, -- select an option -- ,,"Click q if you noticed no change between the shape at the start and at the end, click p if you did notice a change. Rate your confidence level on a scale of 1-9.","To see how good people are at perceiving small changes, maybe based on color, speed between observations. ",Worked fine.,1060291.0,no_change,same,shape6_no_change5,1,1,none
shape7,concave_area2,6,62,different,6,2214.0,55b6a2e5fdf99b350d57360e,ducktruck,v001,1037420.0,60e37abdc60a8398fd63c9e4,60ef12f12c286ba9fa30ee2f,Firefox,89,1347,2560,1440,2560,q, -- select an option -- ,,"Click q if you noticed no change between the shape at the start and at the end, click p if you did notice a change. Rate your confidence level on a scale of 1-9.","To see how good people are at perceiving small changes, maybe based on color, speed between observations. ",Worked fine.,1060291.0,concave_area2,different,shape7_concave_area2,1,1,concave
shape2,convex_area2,7,63,different,9,1207.0,55b6a2e5fdf99b350d57360e,ducktruck,v001,1037420.0,60e37abdc60a8398fd63c9e4,60ef12f12c286ba9fa30ee2f,Firefox,89,1347,2560,1440,2560,q, -- select an option -- ,,"Click q if you noticed no change between the shape at the start and at the end, click p if you did notice a change. Rate your confidence level on a scale of 1-9.","To see how good people are at perceiving small changes, maybe based on color, speed between observations. ",Worked fine.,1060291.0,convex_area2,different,shape2_convex_area2,1,1,convex
shape1,concave_nofill_area2,7,64,different,7,1903.0,55b6a2e5fdf99b350d57360e,ducktruck,v001,1037420.0,60e37abdc60a8398fd63c9e4,60ef12f12c286ba9fa30ee2f,Firefox,89,1347,2560,1440,2560,q, -- select an option -- ,,"Click q if you noticed no change between the shape at the start and at the end, click p if you did notice a change. Rate your confidence level on a scale of 1-9.","To see how good people are at perceiving small changes, maybe based on color, speed between observations. ",Worked fine.,1060291.0,concave_nofill_area2,different,shape1_concave_nofill_area2,1,1,concave_nofill
shape3,concave_area1,7,65,same,5,2735.0,55b6a2e5fdf99b350d57360e,ducktruck,v001,1037420.0,60e37abdc60a8398fd63c9e4,60ef12f12c286ba9fa30ee2f,Firefox,89,1347,2560,1440,2560,q, -- select an option -- ,,"Click q if you noticed no change between the shape at the start and at the end, click p if you did notice a change. Rate your confidence level on a scale of 1-9.","To see how good people are at perceiving small changes, maybe based on color, speed between observations. ",Worked fine.,1060291.0,concave_area1,different,shape3_concave_area1,0,1,concave
shape6,concave_area2,7,66,different,9,973.0,55b6a2e5fdf99b350d57360e,ducktruck,v001,1037420.0,60e37abdc60a8398fd63c9e4,60ef12f12c286ba9fa30ee2f,Firefox,89,1347,2560,1440,2560,q, -- select an option -- ,,"Click q if you noticed no change between the shape at the start and at the end, click p if you did notice a change. Rate your confidence level on a scale of 1-9.","To see how good people are at perceiving small changes, maybe based on color, speed between observations. ",Worked fine.,1060291.0,concave_area2,different,shape6_concave_area2,1,1,concave
shape4,concave_nofill_area2,7,67,different,9,830.0,55b6a2e5fdf99b350d57360e,ducktruck,v001,1037420.0,60e37abdc60a8398fd63c9e4,60ef12f12c286ba9fa30ee2f,Firefox,89,1347,2560,1440,2560,q, -- select an option -- ,,"Click q if you noticed no change between the shape at the start and at the end, click p if you did notice a change. Rate your confidence level on a scale of 1-9.","To see how good people are at perceiving small changes, maybe based on color, speed between observations. ",Worked fine.,1060291.0,concave_nofill_area2,different,shape4_concave_nofill_area2,1,1,concave_nofill
shape8,convex_area1,7,68,different,9,845.0,55b6a2e5fdf99b350d57360e,ducktruck,v001,1037420.0,60e37abdc60a8398fd63c9e4,60ef12f12c286ba9fa30ee2f,Firefox,89,1347,2560,1440,2560,q, -- select an option -- ,,"Click q if you noticed no change between the shape at the start and at the end, click p if you did notice a change. Rate your confidence level on a scale of 1-9.","To see how good people are at perceiving small changes, maybe based on color, speed between observations. ",Worked fine.,1060291.0,convex_area1,different,shape8_convex_area1,1,1,convex
shape7,convex_area1,7,69,different,9,870.0,55b6a2e5fdf99b350d57360e,ducktruck,v001,1037420.0,60e37abdc60a8398fd63c9e4,60ef12f12c286ba9fa30ee2f,Firefox,89,1347,2560,1440,2560,q, -- select an option -- ,,"Click q if you noticed no change between the shape at the start and at the end, click p if you did notice a change. Rate your confidence level on a scale of 1-9.","To see how good people are at perceiving small changes, maybe based on color, speed between observations. ",Worked fine.,1060291.0,convex_area1,different,shape7_convex_area1,1,1,convex
catch_shape,no_change6,7,70,different,6,2166.0,55b6a2e5fdf99b350d57360e,ducktruck,v001,1037420.0,60e37abdc60a8398fd63c9e4,60ef12f12c286ba9fa30ee2f,Firefox,89,1347,2560,1440,2560,q, -- select an option -- ,,"Click q if you noticed no change between the shape at the start and at the end, click p if you did notice a change. Rate your confidence level on a scale of 1-9.","To see how good people are at perceiving small changes, maybe based on color, speed between observations. ",Worked fine.,1060291.0,no_change,same,catch_shape_no_change6,0,1,none
shape5,no_change4,7,71,different,6,1296.0,55b6a2e5fdf99b350d57360e,ducktruck,v001,1037420.0,60e37abdc60a8398fd63c9e4,60ef12f12c286ba9fa30ee2f,Firefox,89,1347,2560,1440,2560,q, -- select an option -- ,,"Click q if you noticed no change between the shape at the start and at the end, click p if you did notice a change. Rate your confidence level on a scale of 1-9.","To see how good people are at perceiving small changes, maybe based on color, speed between observations. ",Worked fine.,1060291.0,no_change,same,shape5_no_change4,0,1,none
shape1,no_change5,8,72,same,8,1470.0,55b6a2e5fdf99b350d57360e,ducktruck,v001,1037420.0,60e37abdc60a8398fd63c9e4,60ef12f12c286ba9fa30ee2f,Firefox,89,1347,2560,1440,2560,q, -- select an option -- ,,"Click q if you noticed no change between the shape at the start and at the end, click p if you did notice a change. Rate your confidence level on a scale of 1-9.","To see how good people are at perceiving small changes, maybe based on color, speed between observations. ",Worked fine.,1060291.0,no_change,same,shape1_no_change5,1,1,none
shape2,concave_area2,8,73,different,9,887.0,55b6a2e5fdf99b350d57360e,ducktruck,v001,1037420.0,60e37abdc60a8398fd63c9e4,60ef12f12c286ba9fa30ee2f,Firefox,89,1347,2560,1440,2560,q, -- select an option -- ,,"Click q if you noticed no change between the shape at the start and at the end, click p if you did notice a change. Rate your confidence level on a scale of 1-9.","To see how good people are at perceiving small changes, maybe based on color, speed between observations. ",Worked fine.,1060291.0,concave_area2,different,shape2_concave_area2,1,1,concave
shape4,convex_area1,8,74,different,9,743.0,55b6a2e5fdf99b350d57360e,ducktruck,v001,1037420.0,60e37abdc60a8398fd63c9e4,60ef12f12c286ba9fa30ee2f,Firefox,89,1347,2560,1440,2560,q, -- select an option -- ,,"Click q if you noticed no change between the shape at the start and at the end, click p if you did notice a change. Rate your confidence level on a scale of 1-9.","To see how good people are at perceiving small changes, maybe based on color, speed between observations. ",Worked fine.,1060291.0,convex_area1,different,shape4_convex_area1,1,1,convex
shape3,concave_nofill_area1,8,75,different,9,1150.0,55b6a2e5fdf99b350d57360e,ducktruck,v001,1037420.0,60e37abdc60a8398fd63c9e4,60ef12f12c286ba9fa30ee2f,Firefox,89,1347,2560,1440,2560,q, -- select an option -- ,,"Click q if you noticed no change between the shape at the start and at the end, click p if you did notice a change. Rate your confidence level on a scale of 1-9.","To see how good people are at perceiving small changes, maybe based on color, speed between observations. ",Worked fine.,1060291.0,concave_nofill_area1,different,shape3_concave_nofill_area1,1,1,concave_nofill
shape7,concave_nofill_area1,8,76,different,9,775.0,55b6a2e5fdf99b350d57360e,ducktruck,v001,1037420.0,60e37abdc60a8398fd63c9e4,60ef12f12c286ba9fa30ee2f,Firefox,89,1347,2560,1440,2560,q, -- select an option -- ,,"Click q if you noticed no change between the shape at the start and at the end, click p if you did notice a change. Rate your confidence level on a scale of 1-9.","To see how good people are at perceiving small changes, maybe based on color, speed between observations. ",Worked fine.,1060291.0,concave_nofill_area1,different,shape7_concave_nofill_area1,1,1,concave_nofill
shape6,no_change4,8,77,different,9,767.0,55b6a2e5fdf99b350d57360e,ducktruck,v001,1037420.0,60e37abdc60a8398fd63c9e4,60ef12f12c286ba9fa30ee2f,Firefox,89,1347,2560,1440,2560,q, -- select an option -- ,,"Click q if you noticed no change between the shape at the start and at the end, click p if you did notice a change. Rate your confidence level on a scale of 1-9.","To see how good people are at perceiving small changes, maybe based on color, speed between observations. ",Worked fine.,1060291.0,no_change,same,shape6_no_change4,0,1,none
shape5,concave_area1,8,78,different,7,2784.0,55b6a2e5fdf99b350d57360e,ducktruck,v001,1037420.0,60e37abdc60a8398fd63c9e4,60ef12f12c286ba9fa30ee2f,Firefox,89,1347,2560,1440,2560,q, -- select an option -- ,,"Click q if you noticed no change between the shape at the start and at the end, click p if you did notice a change. Rate your confidence level on a scale of 1-9.","To see how good people are at perceiving small changes, maybe based on color, speed between observations. ",Worked fine.,1060291.0,concave_area1,different,shape5_concave_area1,1,1,concave
shape8,convex_area2,8,79,different,9,757.0,55b6a2e5fdf99b350d57360e,ducktruck,v001,1037420.0,60e37abdc60a8398fd63c9e4,60ef12f12c286ba9fa30ee2f,Firefox,89,1347,2560,1440,2560,q, -- select an option -- ,,"Click q if you noticed no change between the shape at the start and at the end, click p if you did notice a change. Rate your confidence level on a scale of 1-9.","To see how good people are at perceiving small changes, maybe based on color, speed between observations. ",Worked fine.,1060291.0,convex_area2,different,shape8_convex_area2,1,1,convex
catch_shape,change2,8,80,different,9,655.0,55b6a2e5fdf99b350d57360e,ducktruck,v001,1037420.0,60e37abdc60a8398fd63c9e4,60ef12f12c286ba9fa30ee2f,Firefox,89,1347,2560,1440,2560,q, -- select an option -- ,,"Click q if you noticed no change between the shape at the start and at the end, click p if you did notice a change. Rate your confidence level on a scale of 1-9.","To see how good people are at perceiving small changes, maybe based on color, speed between observations. ",Worked fine.,1060291.0,change2,different,catch_shape_change2,1,1,none
shape2,concave_nofill_area1,9,81,different,9,1565.0,55b6a2e5fdf99b350d57360e,ducktruck,v001,1037420.0,60e37abdc60a8398fd63c9e4,60ef12f12c286ba9fa30ee2f,Firefox,89,1347,2560,1440,2560,q, -- select an option -- ,,"Click q if you noticed no change between the shape at the start and at the end, click p if you did notice a change. Rate your confidence level on a scale of 1-9.","To see how good people are at perceiving small changes, maybe based on color, speed between observations. ",Worked fine.,1060291.0,concave_nofill_area1,different,shape2_concave_nofill_area1,1,1,concave_nofill
shape1,convex_area1,9,82,different,9,935.0,55b6a2e5fdf99b350d57360e,ducktruck,v001,1037420.0,60e37abdc60a8398fd63c9e4,60ef12f12c286ba9fa30ee2f,Firefox,89,1347,2560,1440,2560,q, -- select an option -- ,,"Click q if you noticed no change between the shape at the start and at the end, click p if you did notice a change. Rate your confidence level on a scale of 1-9.","To see how good people are at perceiving small changes, maybe based on color, speed between observations. ",Worked fine.,1060291.0,convex_area1,different,shape1_convex_area1,1,1,convex
shape8,concave_nofill_area2,9,83,different,9,880.0,55b6a2e5fdf99b350d57360e,ducktruck,v001,1037420.0,60e37abdc60a8398fd63c9e4,60ef12f12c286ba9fa30ee2f,Firefox,89,1347,2560,1440,2560,q, -- select an option -- ,,"Click q if you noticed no change between the shape at the start and at the end, click p if you did notice a change. Rate your confidence level on a scale of 1-9.","To see how good people are at perceiving small changes, maybe based on color, speed between observations. ",Worked fine.,1060291.0,concave_nofill_area2,different,shape8_concave_nofill_area2,1,1,concave_nofill
shape3,no_change5,9,84,same,8,1358.0,55b6a2e5fdf99b350d57360e,ducktruck,v001,1037420.0,60e37abdc60a8398fd63c9e4,60ef12f12c286ba9fa30ee2f,Firefox,89,1347,2560,1440,2560,q, -- select an option -- ,,"Click q if you noticed no change between the shape at the start and at the end, click p if you did notice a change. Rate your confidence level on a scale of 1-9.","To see how good people are at perceiving small changes, maybe based on color, speed between observations. ",Worked fine.,1060291.0,no_change,same,shape3_no_change5,1,1,none
shape4,concave_area1,9,85,same,9,1686.0,55b6a2e5fdf99b350d57360e,ducktruck,v001,1037420.0,60e37abdc60a8398fd63c9e4,60ef12f12c286ba9fa30ee2f,Firefox,89,1347,2560,1440,2560,q, -- select an option -- ,,"Click q if you noticed no change between the shape at the start and at the end, click p if you did notice a change. Rate your confidence level on a scale of 1-9.","To see how good people are at perceiving small changes, maybe based on color, speed between observations. ",Worked fine.,1060291.0,concave_area1,different,shape4_concave_area1,0,1,concave
shape5,convex_area2,9,86,different,9,1056.0,55b6a2e5fdf99b350d57360e,ducktruck,v001,1037420.0,60e37abdc60a8398fd63c9e4,60ef12f12c286ba9fa30ee2f,Firefox,89,1347,2560,1440,2560,q, -- select an option -- ,,"Click q if you noticed no change between the shape at the start and at the end, click p if you did notice a change. Rate your confidence level on a scale of 1-9.","To see how good people are at perceiving small changes, maybe based on color, speed between observations. ",Worked fine.,1060291.0,convex_area2,different,shape5_convex_area2,1,1,convex
shape7,concave_nofill_area2,9,87,different,9,846.0,55b6a2e5fdf99b350d57360e,ducktruck,v001,1037420.0,60e37abdc60a8398fd63c9e4,60ef12f12c286ba9fa30ee2f,Firefox,89,1347,2560,1440,2560,q, -- select an option -- ,,"Click q if you noticed no change between the shape at the start and at the end, click p if you did notice a change. Rate your confidence level on a scale of 1-9.","To see how good people are at perceiving small changes, maybe based on color, speed between observations. ",Worked fine.,1060291.0,concave_nofill_area2,different,shape7_concave_nofill_area2,1,1,concave_nofill
shape6,convex_area2,9,88,different,9,757.0,55b6a2e5fdf99b350d57360e,ducktruck,v001,1037420.0,60e37abdc60a8398fd63c9e4,60ef12f12c286ba9fa30ee2f,Firefox,89,1347,2560,1440,2560,q, -- select an option -- ,,"Click q if you noticed no change between the shape at the start and at the end, click p if you did notice a change. Rate your confidence level on a scale of 1-9.","To see how good people are at perceiving small changes, maybe based on color, speed between observations. ",Worked fine.,1060291.0,convex_area2,different,shape6_convex_area2,1,1,convex
catch_shape,no_change4,9,89,same,9,759.0,55b6a2e5fdf99b350d57360e,ducktruck,v001,1037420.0,60e37abdc60a8398fd63c9e4,60ef12f12c286ba9fa30ee2f,Firefox,89,1347,2560,1440,2560,q, -- select an option -- ,,"Click q if you noticed no change between the shape at the start and at the end, click p if you did notice a change. Rate your confidence level on a scale of 1-9.","To see how good people are at perceiving small changes, maybe based on color, speed between observations. ",Worked fine.,1060291.0,no_change,same,catch_shape_no_change4,1,1,none
shape3,convex_area2,10,90,different,9,695.0,55b6a2e5fdf99b350d57360e,ducktruck,v001,1037420.0,60e37abdc60a8398fd63c9e4,60ef12f12c286ba9fa30ee2f,Firefox,89,1347,2560,1440,2560,q, -- select an option -- ,,"Click q if you noticed no change between the shape at the start and at the end, click p if you did notice a change. Rate your confidence level on a scale of 1-9.","To see how good people are at perceiving small changes, maybe based on color, speed between observations. ",Worked fine.,1060291.0,convex_area2,different,shape3_convex_area2,1,1,convex
shape2,concave_nofill_area2,10,91,different,9,679.0,55b6a2e5fdf99b350d57360e,ducktruck,v001,1037420.0,60e37abdc60a8398fd63c9e4,60ef12f12c286ba9fa30ee2f,Firefox,89,1347,2560,1440,2560,q, -- select an option -- ,,"Click q if you noticed no change between the shape at the start and at the end, click p if you did notice a change. Rate your confidence level on a scale of 1-9.","To see how good people are at perceiving small changes, maybe based on color, speed between observations. ",Worked fine.,1060291.0,concave_nofill_area2,different,shape2_concave_nofill_area2,1,1,concave_nofill
shape4,convex_area2,10,92,different,7,1175.0,55b6a2e5fdf99b350d57360e,ducktruck,v001,1037420.0,60e37abdc60a8398fd63c9e4,60ef12f12c286ba9fa30ee2f,Firefox,89,1347,2560,1440,2560,q, -- select an option -- ,,"Click q if you noticed no change between the shape at the start and at the end, click p if you did notice a change. Rate your confidence level on a scale of 1-9.","To see how good people are at perceiving small changes, maybe based on color, speed between observations. ",Worked fine.,1060291.0,convex_area2,different,shape4_convex_area2,1,1,convex
shape1,concave_nofill_area1,10,93,different,5,2031.0,55b6a2e5fdf99b350d57360e,ducktruck,v001,1037420.0,60e37abdc60a8398fd63c9e4,60ef12f12c286ba9fa30ee2f,Firefox,89,1347,2560,1440,2560,q, -- select an option -- ,,"Click q if you noticed no change between the shape at the start and at the end, click p if you did notice a change. Rate your confidence level on a scale of 1-9.","To see how good people are at perceiving small changes, maybe based on color, speed between observations. ",Worked fine.,1060291.0,concave_nofill_area1,different,shape1_concave_nofill_area1,1,1,concave_nofill
shape5,concave_area2,10,94,different,9,830.0,55b6a2e5fdf99b350d57360e,ducktruck,v001,1037420.0,60e37abdc60a8398fd63c9e4,60ef12f12c286ba9fa30ee2f,Firefox,89,1347,2560,1440,2560,q, -- select an option -- ,,"Click q if you noticed no change between the shape at the start and at the end, click p if you did notice a change. Rate your confidence level on a scale of 1-9.","To see how good people are at perceiving small changes, maybe based on color, speed between observations. ",Worked fine.,1060291.0,concave_area2,different,shape5_concave_area2,1,1,concave
shape7,concave_area1,10,95,different,7,1038.0,55b6a2e5fdf99b350d57360e,ducktruck,v001,1037420.0,60e37abdc60a8398fd63c9e4,60ef12f12c286ba9fa30ee2f,Firefox,89,1347,2560,1440,2560,q, -- select an option -- ,,"Click q if you noticed no change between the shape at the start and at the end, click p if you did notice a change. Rate your confidence level on a scale of 1-9.","To see how good people are at perceiving small changes, maybe based on color, speed between observations. ",Worked fine.,1060291.0,concave_area1,different,shape7_concave_area1,1,1,concave
shape8,no_change6,10,96,same,9,919.0,55b6a2e5fdf99b350d57360e,ducktruck,v001,1037420.0,60e37abdc60a8398fd63c9e4,60ef12f12c286ba9fa30ee2f,Firefox,89,1347,2560,1440,2560,q, -- select an option -- ,,"Click q if you noticed no change between the shape at the start and at the end, click p if you did notice a change. Rate your confidence level on a scale of 1-9.","To see how good people are at perceiving small changes, maybe based on color, speed between observations. ",Worked fine.,1060291.0,no_change,same,shape8_no_change6,1,1,none
shape6,convex_area1,10,97,different,9,1030.0,55b6a2e5fdf99b350d57360e,ducktruck,v001,1037420.0,60e37abdc60a8398fd63c9e4,60ef12f12c286ba9fa30ee2f,Firefox,89,1347,2560,1440,2560,q, -- select an option -- ,,"Click q if you noticed no change between the shape at the start and at the end, click p if you did notice a change. Rate your confidence level on a scale of 1-9.","To see how good people are at perceiving small changes, maybe based on color, speed between observations. ",Worked fine.,1060291.0,convex_area1,different,shape6_convex_area1,1,1,convex
catch_shape,change3,10,98,different,9,743.0,55b6a2e5fdf99b350d57360e,ducktruck,v001,1037420.0,60e37abdc60a8398fd63c9e4,60ef12f12c286ba9fa30ee2f,Firefox,89,1347,2560,1440,2560,q, -- select an option -- ,,"Click q if you noticed no change between the shape at the start and at the end, click p if you did notice a change. Rate your confidence level on a scale of 1-9.","To see how good people are at perceiving small changes, maybe based on color, speed between observations. ",Worked fine.,1060291.0,change3,different,catch_shape_change3,1,1,none
shape3,concave_nofill_area2,11,99,different,9,903.0,55b6a2e5fdf99b350d57360e,ducktruck,v001,1037420.0,60e37abdc60a8398fd63c9e4,60ef12f12c286ba9fa30ee2f,Firefox,89,1347,2560,1440,2560,q, -- select an option -- ,,"Click q if you noticed no change between the shape at the start and at the end, click p if you did notice a change. Rate your confidence level on a scale of 1-9.","To see how good people are at perceiving small changes, maybe based on color, speed between observations. ",Worked fine.,1060291.0,concave_nofill_area2,different,shape3_concave_nofill_area2,1,1,concave_nofill
shape1,convex_area2,11,100,different,9,748.0,55b6a2e5fdf99b350d57360e,ducktruck,v001,1037420.0,60e37abdc60a8398fd63c9e4,60ef12f12c286ba9fa30ee2f,Firefox,89,1347,2560,1440,2560,q, -- select an option -- ,,"Click q if you noticed no change between the shape at the start and at the end, click p if you did notice a change. Rate your confidence level on a scale of 1-9.","To see how good people are at perceiving small changes, maybe based on color, speed between observations. ",Worked fine.,1060291.0,convex_area2,different,shape1_convex_area2,1,1,convex
shape2,concave_area1,11,101,different,9,846.0,55b6a2e5fdf99b350d57360e,ducktruck,v001,1037420.0,60e37abdc60a8398fd63c9e4,60ef12f12c286ba9fa30ee2f,Firefox,89,1347,2560,1440,2560,q, -- select an option -- ,,"Click q if you noticed no change between the shape at the start and at the end, click p if you did notice a change. Rate your confidence level on a scale of 1-9.","To see how good people are at perceiving small changes, maybe based on color, speed between observations. ",Worked fine.,1060291.0,concave_area1,different,shape2_concave_area1,1,1,concave
shape4,concave_area2,11,102,different,9,837.0,55b6a2e5fdf99b350d57360e,ducktruck,v001,1037420.0,60e37abdc60a8398fd63c9e4,60ef12f12c286ba9fa30ee2f,Firefox,89,1347,2560,1440,2560,q, -- select an option -- ,,"Click q if you noticed no change between the shape at the start and at the end, click p if you did notice a change. Rate your confidence level on a scale of 1-9.","To see how good people are at perceiving small changes, maybe based on color, speed between observations. ",Worked fine.,1060291.0,concave_area2,different,shape4_concave_area2,1,1,concave
shape5,concave_nofill_area2,11,103,different,9,863.0,55b6a2e5fdf99b350d57360e,ducktruck,v001,1037420.0,60e37abdc60a8398fd63c9e4,60ef12f12c286ba9fa30ee2f,Firefox,89,1347,2560,1440,2560,q, -- select an option -- ,,"Click q if you noticed no change between the shape at the start and at the end, click p if you did notice a change. Rate your confidence level on a scale of 1-9.","To see how good people are at perceiving small changes, maybe based on color, speed between observations. ",Worked fine.,1060291.0,concave_nofill_area2,different,shape5_concave_nofill_area2,1,1,concave_nofill
shape6,concave_nofill_area2,11,104,different,9,871.0,55b6a2e5fdf99b350d57360e,ducktruck,v001,1037420.0,60e37abdc60a8398fd63c9e4,60ef12f12c286ba9fa30ee2f,Firefox,89,1347,2560,1440,2560,q, -- select an option -- ,,"Click q if you noticed no change between the shape at the start and at the end, click p if you did notice a change. Rate your confidence level on a scale of 1-9.","To see how good people are at perceiving small changes, maybe based on color, speed between observations. ",Worked fine.,1060291.0,concave_nofill_area2,different,shape6_concave_nofill_area2,1,1,concave_nofill
catch_shape,change6,11,105,different,9,789.0,55b6a2e5fdf99b350d57360e,ducktruck,v001,1037420.0,60e37abdc60a8398fd63c9e4,60ef12f12c286ba9fa30ee2f,Firefox,89,1347,2560,1440,2560,q, -- select an option -- ,,"Click q if you noticed no change between the shape at the start and at the end, click p if you did notice a change. Rate your confidence level on a scale of 1-9.","To see how good people are at perceiving small changes, maybe based on color, speed between observations. ",Worked fine.,1060291.0,change6,different,catch_shape_change6,1,1,none
shape8,concave_area2,11,106,different,9,1183.0,55b6a2e5fdf99b350d57360e,ducktruck,v001,1037420.0,60e37abdc60a8398fd63c9e4,60ef12f12c286ba9fa30ee2f,Firefox,89,1347,2560,1440,2560,q, -- select an option -- ,,"Click q if you noticed no change between the shape at the start and at the end, click p if you did notice a change. Rate your confidence level on a scale of 1-9.","To see how good people are at perceiving small changes, maybe based on color, speed between observations. ",Worked fine.,1060291.0,concave_area2,different,shape8_concave_area2,1,1,concave
shape7,convex_area2,11,107,different,9,758.0,55b6a2e5fdf99b350d57360e,ducktruck,v001,1037420.0,60e37abdc60a8398fd63c9e4,60ef12f12c286ba9fa30ee2f,Firefox,89,1347,2560,1440,2560,q, -- select an option -- ,,"Click q if you noticed no change between the shape at the start and at the end, click p if you did notice a change. Rate your confidence level on a scale of 1-9.","To see how good people are at perceiving small changes, maybe based on color, speed between observations. ",Worked fine.,1060291.0,convex_area2,different,shape7_convex_area2,1,1,convex
shape4,no_change4,0,0,same,9,4284.4,56bd0347d4e218000ca87e53,ducktruck,v001,1411265.7,60e37abdc60a8398fd63c9e4,60ef2379c3b5d55b8c8aaa61,Chrome,91,957,1903,1080,1920,q, -- select an option -- ,,I had to press Q for no change and P for changes. I would then rate how sure I was. It was 108 videos that I would watch once and decide if the shape coming out the other side was the same or not.,"To see if you can see slight differences, quickly.",Everything worked really well.,1425793.1,no_change,same,shape4_no_change4,1,1,none
catch_shape,change2,0,1,different,9,1972.6,56bd0347d4e218000ca87e53,ducktruck,v001,1411265.7,60e37abdc60a8398fd63c9e4,60ef2379c3b5d55b8c8aaa61,Chrome,91,957,1903,1080,1920,q, -- select an option -- ,,I had to press Q for no change and P for changes. I would then rate how sure I was. It was 108 videos that I would watch once and decide if the shape coming out the other side was the same or not.,"To see if you can see slight differences, quickly.",Everything worked really well.,1425793.1,change2,different,catch_shape_change2,1,1,none
shape2,no_change6,0,2,same,9,1529.2,56bd0347d4e218000ca87e53,ducktruck,v001,1411265.7,60e37abdc60a8398fd63c9e4,60ef2379c3b5d55b8c8aaa61,Chrome,91,957,1903,1080,1920,q, -- select an option -- ,,I had to press Q for no change and P for changes. I would then rate how sure I was. It was 108 videos that I would watch once and decide if the shape coming out the other side was the same or not.,"To see if you can see slight differences, quickly.",Everything worked really well.,1425793.1,no_change,same,shape2_no_change6,1,1,none
shape1,no_change1,0,3,same,9,1235.9,56bd0347d4e218000ca87e53,ducktruck,v001,1411265.7,60e37abdc60a8398fd63c9e4,60ef2379c3b5d55b8c8aaa61,Chrome,91,957,1903,1080,1920,q, -- select an option -- ,,I had to press Q for no change and P for changes. I would then rate how sure I was. It was 108 videos that I would watch once and decide if the shape coming out the other side was the same or not.,"To see if you can see slight differences, quickly.",Everything worked really well.,1425793.1,no_change,same,shape1_no_change1,1,1,none
shape3,concave_area1,0,4,same,9,1153.9,56bd0347d4e218000ca87e53,ducktruck,v001,1411265.7,60e37abdc60a8398fd63c9e4,60ef2379c3b5d55b8c8aaa61,Chrome,91,957,1903,1080,1920,q, -- select an option -- ,,I had to press Q for no change and P for changes. I would then rate how sure I was. It was 108 videos that I would watch once and decide if the shape coming out the other side was the same or not.,"To see if you can see slight differences, quickly.",Everything worked really well.,1425793.1,concave_area1,different,shape3_concave_area1,0,1,concave
shape5,no_change1,0,5,same,9,1116.9,56bd0347d4e218000ca87e53,ducktruck,v001,1411265.7,60e37abdc60a8398fd63c9e4,60ef2379c3b5d55b8c8aaa61,Chrome,91,957,1903,1080,1920,q, -- select an option -- ,,I had to press Q for no change and P for changes. I would then rate how sure I was. It was 108 videos that I would watch once and decide if the shape coming out the other side was the same or not.,"To see if you can see slight differences, quickly.",Everything worked really well.,1425793.1,no_change,same,shape5_no_change1,1,1,none
shape6,convex_area2,0,6,same,8,1818.1,56bd0347d4e218000ca87e53,ducktruck,v001,1411265.7,60e37abdc60a8398fd63c9e4,60ef2379c3b5d55b8c8aaa61,Chrome,91,957,1903,1080,1920,q, -- select an option -- ,,I had to press Q for no change and P for changes. I would then rate how sure I was. It was 108 videos that I would watch once and decide if the shape coming out the other side was the same or not.,"To see if you can see slight differences, quickly.",Everything worked really well.,1425793.1,convex_area2,different,shape6_convex_area2,0,1,convex
shape8,no_change6,0,7,same,9,1005.5,56bd0347d4e218000ca87e53,ducktruck,v001,1411265.7,60e37abdc60a8398fd63c9e4,60ef2379c3b5d55b8c8aaa61,Chrome,91,957,1903,1080,1920,q, -- select an option -- ,,I had to press Q for no change and P for changes. I would then rate how sure I was. It was 108 videos that I would watch once and decide if the shape coming out the other side was the same or not.,"To see if you can see slight differences, quickly.",Everything worked really well.,1425793.1,no_change,same,shape8_no_change6,1,1,none
shape7,no_change1,0,8,same,9,1060.4,56bd0347d4e218000ca87e53,ducktruck,v001,1411265.7,60e37abdc60a8398fd63c9e4,60ef2379c3b5d55b8c8aaa61,Chrome,91,957,1903,1080,1920,q, -- select an option -- ,,I had to press Q for no change and P for changes. I would then rate how sure I was. It was 108 videos that I would watch once and decide if the shape coming out the other side was the same or not.,"To see if you can see slight differences, quickly.",Everything worked really well.,1425793.1,no_change,same,shape7_no_change1,1,1,none
shape2,concave_area1,1,9,same,9,1413.0,56bd0347d4e218000ca87e53,ducktruck,v001,1411265.7,60e37abdc60a8398fd63c9e4,60ef2379c3b5d55b8c8aaa61,Chrome,91,957,1903,1080,1920,q, -- select an option -- ,,I had to press Q for no change and P for changes. I would then rate how sure I was. It was 108 videos that I would watch once and decide if the shape coming out the other side was the same or not.,"To see if you can see slight differences, quickly.",Everything worked really well.,1425793.1,concave_area1,different,shape2_concave_area1,0,1,concave
shape4,no_change1,1,10,same,9,994.1,56bd0347d4e218000ca87e53,ducktruck,v001,1411265.7,60e37abdc60a8398fd63c9e4,60ef2379c3b5d55b8c8aaa61,Chrome,91,957,1903,1080,1920,q, -- select an option -- ,,I had to press Q for no change and P for changes. I would then rate how sure I was. It was 108 videos that I would watch once and decide if the shape coming out the other side was the same or not.,"To see if you can see slight differences, quickly.",Everything worked really well.,1425793.1,no_change,same,shape4_no_change1,1,1,none
catch_shape,no_change6,1,11,same,9,949.6,56bd0347d4e218000ca87e53,ducktruck,v001,1411265.7,60e37abdc60a8398fd63c9e4,60ef2379c3b5d55b8c8aaa61,Chrome,91,957,1903,1080,1920,q, -- select an option -- ,,I had to press Q for no change and P for changes. I would then rate how sure I was. It was 108 videos that I would watch once and decide if the shape coming out the other side was the same or not.,"To see if you can see slight differences, quickly.",Everything worked really well.,1425793.1,no_change,same,catch_shape_no_change6,1,1,none
shape6,concave_area1,1,12,same,9,1202.4,56bd0347d4e218000ca87e53,ducktruck,v001,1411265.7,60e37abdc60a8398fd63c9e4,60ef2379c3b5d55b8c8aaa61,Chrome,91,957,1903,1080,1920,q, -- select an option -- ,,I had to press Q for no change and P for changes. I would then rate how sure I was. It was 108 videos that I would watch once and decide if the shape coming out the other side was the same or not.,"To see if you can see slight differences, quickly.",Everything worked really well.,1425793.1,concave_area1,different,shape6_concave_area1,0,1,concave
shape8,no_change4,1,13,same,8,1557.0,56bd0347d4e218000ca87e53,ducktruck,v001,1411265.7,60e37abdc60a8398fd63c9e4,60ef2379c3b5d55b8c8aaa61,Chrome,91,957,1903,1080,1920,q, -- select an option -- ,,I had to press Q for no change and P for changes. I would then rate how sure I was. It was 108 videos that I would watch once and decide if the shape coming out the other side was the same or not.,"To see if you can see slight differences, quickly.",Everything worked really well.,1425793.1,no_change,same,shape8_no_change4,1,1,none
shape7,convex_area2,1,14,different,7,2396.2,56bd0347d4e218000ca87e53,ducktruck,v001,1411265.7,60e37abdc60a8398fd63c9e4,60ef2379c3b5d55b8c8aaa61,Chrome,91,957,1903,1080,1920,q, -- select an option -- ,,I had to press Q for no change and P for changes. I would then rate how sure I was. It was 108 videos that I would watch once and decide if the shape coming out the other side was the same or not.,"To see if you can see slight differences, quickly.",Everything worked really well.,1425793.1,convex_area2,different,shape7_convex_area2,1,1,convex
shape1,concave_area1,1,15,same,9,1611.6,56bd0347d4e218000ca87e53,ducktruck,v001,1411265.7,60e37abdc60a8398fd63c9e4,60ef2379c3b5d55b8c8aaa61,Chrome,91,957,1903,1080,1920,q, -- select an option -- ,,I had to press Q for no change and P for changes. I would then rate how sure I was. It was 108 videos that I would watch once and decide if the shape coming out the other side was the same or not.,"To see if you can see slight differences, quickly.",Everything worked really well.,1425793.1,concave_area1,different,shape1_concave_area1,0,1,concave
shape3,concave_area2,1,16,different,8,1634.9,56bd0347d4e218000ca87e53,ducktruck,v001,1411265.7,60e37abdc60a8398fd63c9e4,60ef2379c3b5d55b8c8aaa61,Chrome,91,957,1903,1080,1920,q, -- select an option -- ,,I had to press Q for no change and P for changes. I would then rate how sure I was. It was 108 videos that I would watch once and decide if the shape coming out the other side was the same or not.,"To see if you can see slight differences, quickly.",Everything worked really well.,1425793.1,concave_area2,different,shape3_concave_area2,1,1,concave
shape5,no_change2,1,17,same,8,1686.5,56bd0347d4e218000ca87e53,ducktruck,v001,1411265.7,60e37abdc60a8398fd63c9e4,60ef2379c3b5d55b8c8aaa61,Chrome,91,957,1903,1080,1920,q, -- select an option -- ,,I had to press Q for no change and P for changes. I would then rate how sure I was. It was 108 videos that I would watch once and decide if the shape coming out the other side was the same or not.,"To see if you can see slight differences, quickly.",Everything worked really well.,1425793.1,no_change,same,shape5_no_change2,1,1,none
shape8,concave_area2,2,18,same,9,1669.7,56bd0347d4e218000ca87e53,ducktruck,v001,1411265.7,60e37abdc60a8398fd63c9e4,60ef2379c3b5d55b8c8aaa61,Chrome,91,957,1903,1080,1920,q, -- select an option -- ,,I had to press Q for no change and P for changes. I would then rate how sure I was. It was 108 videos that I would watch once and decide if the shape coming out the other side was the same or not.,"To see if you can see slight differences, quickly.",Everything worked really well.,1425793.1,concave_area2,different,shape8_concave_area2,0,1,concave
shape7,no_change2,2,19,same,7,1169.3,56bd0347d4e218000ca87e53,ducktruck,v001,1411265.7,60e37abdc60a8398fd63c9e4,60ef2379c3b5d55b8c8aaa61,Chrome,91,957,1903,1080,1920,q, -- select an option -- ,,I had to press Q for no change and P for changes. I would then rate how sure I was. It was 108 videos that I would watch once and decide if the shape coming out the other side was the same or not.,"To see if you can see slight differences, quickly.",Everything worked really well.,1425793.1,no_change,same,shape7_no_change2,1,1,none
shape4,no_change6,2,20,same,7,852.0,56bd0347d4e218000ca87e53,ducktruck,v001,1411265.7,60e37abdc60a8398fd63c9e4,60ef2379c3b5d55b8c8aaa61,Chrome,91,957,1903,1080,1920,q, -- select an option -- ,,I had to press Q for no change and P for changes. I would then rate how sure I was. It was 108 videos that I would watch once and decide if the shape coming out the other side was the same or not.,"To see if you can see slight differences, quickly.",Everything worked really well.,1425793.1,no_change,same,shape4_no_change6,1,1,none
catch_shape,no_change1,2,21,same,8,972.5,56bd0347d4e218000ca87e53,ducktruck,v001,1411265.7,60e37abdc60a8398fd63c9e4,60ef2379c3b5d55b8c8aaa61,Chrome,91,957,1903,1080,1920,q, -- select an option -- ,,I had to press Q for no change and P for changes. I would then rate how sure I was. It was 108 videos that I would watch once and decide if the shape coming out the other side was the same or not.,"To see if you can see slight differences, quickly.",Everything worked really well.,1425793.1,no_change,same,catch_shape_no_change1,1,1,none
shape3,concave_nofill_area2,2,22,different,8,1942.2,56bd0347d4e218000ca87e53,ducktruck,v001,1411265.7,60e37abdc60a8398fd63c9e4,60ef2379c3b5d55b8c8aaa61,Chrome,91,957,1903,1080,1920,q, -- select an option -- ,,I had to press Q for no change and P for changes. I would then rate how sure I was. It was 108 videos that I would watch once and decide if the shape coming out the other side was the same or not.,"To see if you can see slight differences, quickly.",Everything worked really well.,1425793.1,concave_nofill_area2,different,shape3_concave_nofill_area2,1,1,concave_nofill
shape2,concave_nofill_area1,2,23,different,9,1789.1,56bd0347d4e218000ca87e53,ducktruck,v001,1411265.7,60e37abdc60a8398fd63c9e4,60ef2379c3b5d55b8c8aaa61,Chrome,91,957,1903,1080,1920,q, -- select an option -- ,,I had to press Q for no change and P for changes. I would then rate how sure I was. It was 108 videos that I would watch once and decide if the shape coming out the other side was the same or not.,"To see if you can see slight differences, quickly.",Everything worked really well.,1425793.1,concave_nofill_area1,different,shape2_concave_nofill_area1,1,1,concave_nofill
shape1,no_change6,2,24,same,8,1677.5,56bd0347d4e218000ca87e53,ducktruck,v001,1411265.7,60e37abdc60a8398fd63c9e4,60ef2379c3b5d55b8c8aaa61,Chrome,91,957,1903,1080,1920,q, -- select an option -- ,,I had to press Q for no change and P for changes. I would then rate how sure I was. It was 108 videos that I would watch once and decide if the shape coming out the other side was the same or not.,"To see if you can see slight differences, quickly.",Everything worked really well.,1425793.1,no_change,same,shape1_no_change6,1,1,none
shape6,no_change5,2,25,different,8,3239.5,56bd0347d4e218000ca87e53,ducktruck,v001,1411265.7,60e37abdc60a8398fd63c9e4,60ef2379c3b5d55b8c8aaa61,Chrome,91,957,1903,1080,1920,q, -- select an option -- ,,I had to press Q for no change and P for changes. I would then rate how sure I was. It was 108 videos that I would watch once and decide if the shape coming out the other side was the same or not.,"To see if you can see slight differences, quickly.",Everything worked really well.,1425793.1,no_change,same,shape6_no_change5,0,1,none
shape5,no_change3,2,26,same,7,918.0,56bd0347d4e218000ca87e53,ducktruck,v001,1411265.7,60e37abdc60a8398fd63c9e4,60ef2379c3b5d55b8c8aaa61,Chrome,91,957,1903,1080,1920,q, -- select an option -- ,,I had to press Q for no change and P for changes. I would then rate how sure I was. It was 108 videos that I would watch once and decide if the shape coming out the other side was the same or not.,"To see if you can see slight differences, quickly.",Everything worked really well.,1425793.1,no_change,same,shape5_no_change3,1,1,none
shape1,concave_area2,3,27,different,8,1493.3,56bd0347d4e218000ca87e53,ducktruck,v001,1411265.7,60e37abdc60a8398fd63c9e4,60ef2379c3b5d55b8c8aaa61,Chrome,91,957,1903,1080,1920,q, -- select an option -- ,,I had to press Q for no change and P for changes. I would then rate how sure I was. It was 108 videos that I would watch once and decide if the shape coming out the other side was the same or not.,"To see if you can see slight differences, quickly.",Everything worked really well.,1425793.1,concave_area2,different,shape1_concave_area2,1,1,concave
shape5,no_change4,3,28,same,8,843.8,56bd0347d4e218000ca87e53,ducktruck,v001,1411265.7,60e37abdc60a8398fd63c9e4,60ef2379c3b5d55b8c8aaa61,Chrome,91,957,1903,1080,1920,q, -- select an option -- ,,I had to press Q for no change and P for changes. I would then rate how sure I was. It was 108 videos that I would watch once and decide if the shape coming out the other side was the same or not.,"To see if you can see slight differences, quickly.",Everything worked really well.,1425793.1,no_change,same,shape5_no_change4,1,1,none
shape6,no_change1,3,29,different,7,996.8,56bd0347d4e218000ca87e53,ducktruck,v001,1411265.7,60e37abdc60a8398fd63c9e4,60ef2379c3b5d55b8c8aaa61,Chrome,91,957,1903,1080,1920,q, -- select an option -- ,,I had to press Q for no change and P for changes. I would then rate how sure I was. It was 108 videos that I would watch once and decide if the shape coming out the other side was the same or not.,"To see if you can see slight differences, quickly.",Everything worked really well.,1425793.1,no_change,same,shape6_no_change1,0,1,none
shape2,convex_area1,3,30,same,7,1770.7,56bd0347d4e218000ca87e53,ducktruck,v001,1411265.7,60e37abdc60a8398fd63c9e4,60ef2379c3b5d55b8c8aaa61,Chrome,91,957,1903,1080,1920,q, -- select an option -- ,,I had to press Q for no change and P for changes. I would then rate how sure I was. It was 108 videos that I would watch once and decide if the shape coming out the other side was the same or not.,"To see if you can see slight differences, quickly.",Everything worked really well.,1425793.1,convex_area1,different,shape2_convex_area1,0,1,convex
shape4,no_change2,3,31,same,7,684.5,56bd0347d4e218000ca87e53,ducktruck,v001,1411265.7,60e37abdc60a8398fd63c9e4,60ef2379c3b5d55b8c8aaa61,Chrome,91,957,1903,1080,1920,q, -- select an option -- ,,I had to press Q for no change and P for changes. I would then rate how sure I was. It was 108 videos that I would watch once and decide if the shape coming out the other side was the same or not.,"To see if you can see slight differences, quickly.",Everything worked really well.,1425793.1,no_change,same,shape4_no_change2,1,1,none
shape7,concave_area2,3,32,same,7,3050.7,56bd0347d4e218000ca87e53,ducktruck,v001,1411265.7,60e37abdc60a8398fd63c9e4,60ef2379c3b5d55b8c8aaa61,Chrome,91,957,1903,1080,1920,q, -- select an option -- ,,I had to press Q for no change and P for changes. I would then rate how sure I was. It was 108 videos that I would watch once and decide if the shape coming out the other side was the same or not.,"To see if you can see slight differences, quickly.",Everything worked really well.,1425793.1,concave_area2,different,shape7_concave_area2,0,1,concave
shape3,convex_area1,3,33,different,7,2114.8,56bd0347d4e218000ca87e53,ducktruck,v001,1411265.7,60e37abdc60a8398fd63c9e4,60ef2379c3b5d55b8c8aaa61,Chrome,91,957,1903,1080,1920,q, -- select an option -- ,,I had to press Q for no change and P for changes. I would then rate how sure I was. It was 108 videos that I would watch once and decide if the shape coming out the other side was the same or not.,"To see if you can see slight differences, quickly.",Everything worked really well.,1425793.1,convex_area1,different,shape3_convex_area1,1,1,convex
shape8,convex_area1,3,34,same,8,1831.2,56bd0347d4e218000ca87e53,ducktruck,v001,1411265.7,60e37abdc60a8398fd63c9e4,60ef2379c3b5d55b8c8aaa61,Chrome,91,957,1903,1080,1920,q, -- select an option -- ,,I had to press Q for no change and P for changes. I would then rate how sure I was. It was 108 videos that I would watch once and decide if the shape coming out the other side was the same or not.,"To see if you can see slight differences, quickly.",Everything worked really well.,1425793.1,convex_area1,different,shape8_convex_area1,0,1,convex
catch_shape,change4,3,35,different,9,1988.7,56bd0347d4e218000ca87e53,ducktruck,v001,1411265.7,60e37abdc60a8398fd63c9e4,60ef2379c3b5d55b8c8aaa61,Chrome,91,957,1903,1080,1920,q, -- select an option -- ,,I had to press Q for no change and P for changes. I would then rate how sure I was. It was 108 videos that I would watch once and decide if the shape coming out the other side was the same or not.,"To see if you can see slight differences, quickly.",Everything worked really well.,1425793.1,change4,different,catch_shape_change4,1,1,none
shape8,no_change3,4,36,same,8,1949.6,56bd0347d4e218000ca87e53,ducktruck,v001,1411265.7,60e37abdc60a8398fd63c9e4,60ef2379c3b5d55b8c8aaa61,Chrome,91,957,1903,1080,1920,q, -- select an option -- ,,I had to press Q for no change and P for changes. I would then rate how sure I was. It was 108 videos that I would watch once and decide if the shape coming out the other side was the same or not.,"To see if you can see slight differences, quickly.",Everything worked really well.,1425793.1,no_change,same,shape8_no_change3,1,1,none
shape6,no_change4,4,37,different,7,2290.0,56bd0347d4e218000ca87e53,ducktruck,v001,1411265.7,60e37abdc60a8398fd63c9e4,60ef2379c3b5d55b8c8aaa61,Chrome,91,957,1903,1080,1920,q, -- select an option -- ,,I had to press Q for no change and P for changes. I would then rate how sure I was. It was 108 videos that I would watch once and decide if the shape coming out the other side was the same or not.,"To see if you can see slight differences, quickly.",Everything worked really well.,1425793.1,no_change,same,shape6_no_change4,0,1,none
shape7,no_change3,4,38,same,8,2331.6,56bd0347d4e218000ca87e53,ducktruck,v001,1411265.7,60e37abdc60a8398fd63c9e4,60ef2379c3b5d55b8c8aaa61,Chrome,91,957,1903,1080,1920,q, -- select an option -- ,,I had to press Q for no change and P for changes. I would then rate how sure I was. It was 108 videos that I would watch once and decide if the shape coming out the other side was the same or not.,"To see if you can see slight differences, quickly.",Everything worked really well.,1425793.1,no_change,same,shape7_no_change3,1,1,none
shape1,no_change2,4,39,different,7,30955.5,56bd0347d4e218000ca87e53,ducktruck,v001,1411265.7,60e37abdc60a8398fd63c9e4,60ef2379c3b5d55b8c8aaa61,Chrome,91,957,1903,1080,1920,q, -- select an option -- ,,I had to press Q for no change and P for changes. I would then rate how sure I was. It was 108 videos that I would watch once and decide if the shape coming out the other side was the same or not.,"To see if you can see slight differences, quickly.",Everything worked really well.,1425793.1,no_change,same,shape1_no_change2,0,1,none
shape2,concave_nofill_area2,4,40,same,7,1762.0,56bd0347d4e218000ca87e53,ducktruck,v001,1411265.7,60e37abdc60a8398fd63c9e4,60ef2379c3b5d55b8c8aaa61,Chrome,91,957,1903,1080,1920,q, -- select an option -- ,,I had to press Q for no change and P for changes. I would then rate how sure I was. It was 108 videos that I would watch once and decide if the shape coming out the other side was the same or not.,"To see if you can see slight differences, quickly.",Everything worked really well.,1425793.1,concave_nofill_area2,different,shape2_concave_nofill_area2,0,1,concave_nofill
catch_shape,no_change2,4,41,same,6,1940.3,56bd0347d4e218000ca87e53,ducktruck,v001,1411265.7,60e37abdc60a8398fd63c9e4,60ef2379c3b5d55b8c8aaa61,Chrome,91,957,1903,1080,1920,q, -- select an option -- ,,I had to press Q for no change and P for changes. I would then rate how sure I was. It was 108 videos that I would watch once and decide if the shape coming out the other side was the same or not.,"To see if you can see slight differences, quickly.",Everything worked really well.,1425793.1,no_change,same,catch_shape_no_change2,1,1,none
shape5,no_change5,4,42,same,8,1508.4,56bd0347d4e218000ca87e53,ducktruck,v001,1411265.7,60e37abdc60a8398fd63c9e4,60ef2379c3b5d55b8c8aaa61,Chrome,91,957,1903,1080,1920,q, -- select an option -- ,,I had to press Q for no change and P for changes. I would then rate how sure I was. It was 108 videos that I would watch once and decide if the shape coming out the other side was the same or not.,"To see if you can see slight differences, quickly.",Everything worked really well.,1425793.1,no_change,same,shape5_no_change5,1,1,none
shape3,no_change5,4,43,different,7,1566.8,56bd0347d4e218000ca87e53,ducktruck,v001,1411265.7,60e37abdc60a8398fd63c9e4,60ef2379c3b5d55b8c8aaa61,Chrome,91,957,1903,1080,1920,q, -- select an option -- ,,I had to press Q for no change and P for changes. I would then rate how sure I was. It was 108 videos that I would watch once and decide if the shape coming out the other side was the same or not.,"To see if you can see slight differences, quickly.",Everything worked really well.,1425793.1,no_change,same,shape3_no_change5,0,1,none
shape4,no_change5,4,44,same,8,4232.7,56bd0347d4e218000ca87e53,ducktruck,v001,1411265.7,60e37abdc60a8398fd63c9e4,60ef2379c3b5d55b8c8aaa61,Chrome,91,957,1903,1080,1920,q, -- select an option -- ,,I had to press Q for no change and P for changes. I would then rate how sure I was. It was 108 videos that I would watch once and decide if the shape coming out the other side was the same or not.,"To see if you can see slight differences, quickly.",Everything worked really well.,1425793.1,no_change,same,shape4_no_change5,1,1,none
shape4,concave_area2,5,45,different,8,2242.0,56bd0347d4e218000ca87e53,ducktruck,v001,1411265.7,60e37abdc60a8398fd63c9e4,60ef2379c3b5d55b8c8aaa61,Chrome,91,957,1903,1080,1920,q, -- select an option -- ,,I had to press Q for no change and P for changes. I would then rate how sure I was. It was 108 videos that I would watch once and decide if the shape coming out the other side was the same or not.,"To see if you can see slight differences, quickly.",Everything worked really well.,1425793.1,concave_area2,different,shape4_concave_area2,1,1,concave
shape1,convex_area2,5,46,different,9,1916.2,56bd0347d4e218000ca87e53,ducktruck,v001,1411265.7,60e37abdc60a8398fd63c9e4,60ef2379c3b5d55b8c8aaa61,Chrome,91,957,1903,1080,1920,q, -- select an option -- ,,I had to press Q for no change and P for changes. I would then rate how sure I was. It was 108 videos that I would watch once and decide if the shape coming out the other side was the same or not.,"To see if you can see slight differences, quickly.",Everything worked really well.,1425793.1,convex_area2,different,shape1_convex_area2,1,1,convex
shape6,no_change2,5,47,different,7,1892.6,56bd0347d4e218000ca87e53,ducktruck,v001,1411265.7,60e37abdc60a8398fd63c9e4,60ef2379c3b5d55b8c8aaa61,Chrome,91,957,1903,1080,1920,q, -- select an option -- ,,I had to press Q for no change and P for changes. I would then rate how sure I was. It was 108 videos that I would watch once and decide if the shape coming out the other side was the same or not.,"To see if you can see slight differences, quickly.",Everything worked really well.,1425793.1,no_change,same,shape6_no_change2,0,1,none
shape8,no_change2,5,48,same,9,1167.5,56bd0347d4e218000ca87e53,ducktruck,v001,1411265.7,60e37abdc60a8398fd63c9e4,60ef2379c3b5d55b8c8aaa61,Chrome,91,957,1903,1080,1920,q, -- select an option -- ,,I had to press Q for no change and P for changes. I would then rate how sure I was. It was 108 videos that I would watch once and decide if the shape coming out the other side was the same or not.,"To see if you can see slight differences, quickly.",Everything worked really well.,1425793.1,no_change,same,shape8_no_change2,1,1,none
shape3,no_change1,5,49,different,7,1188.3,56bd0347d4e218000ca87e53,ducktruck,v001,1411265.7,60e37abdc60a8398fd63c9e4,60ef2379c3b5d55b8c8aaa61,Chrome,91,957,1903,1080,1920,q, -- select an option -- ,,I had to press Q for no change and P for changes. I would then rate how sure I was. It was 108 videos that I would watch once and decide if the shape coming out the other side was the same or not.,"To see if you can see slight differences, quickly.",Everything worked really well.,1425793.1,no_change,same,shape3_no_change1,0,1,none
shape2,concave_area2,5,50,different,7,1916.7,56bd0347d4e218000ca87e53,ducktruck,v001,1411265.7,60e37abdc60a8398fd63c9e4,60ef2379c3b5d55b8c8aaa61,Chrome,91,957,1903,1080,1920,q, -- select an option -- ,,I had to press Q for no change and P for changes. I would then rate how sure I was. It was 108 videos that I would watch once and decide if the shape coming out the other side was the same or not.,"To see if you can see slight differences, quickly.",Everything worked really well.,1425793.1,concave_area2,different,shape2_concave_area2,1,1,concave
catch_shape,no_change3,5,51,different,2,3269.0,56bd0347d4e218000ca87e53,ducktruck,v001,1411265.7,60e37abdc60a8398fd63c9e4,60ef2379c3b5d55b8c8aaa61,Chrome,91,957,1903,1080,1920,q, -- select an option -- ,,I had to press Q for no change and P for changes. I would then rate how sure I was. It was 108 videos that I would watch once and decide if the shape coming out the other side was the same or not.,"To see if you can see slight differences, quickly.",Everything worked really well.,1425793.1,no_change,same,catch_shape_no_change3,0,1,none
shape5,concave_nofill_area2,5,52,different,9,1356.1,56bd0347d4e218000ca87e53,ducktruck,v001,1411265.7,60e37abdc60a8398fd63c9e4,60ef2379c3b5d55b8c8aaa61,Chrome,91,957,1903,1080,1920,q, -- select an option -- ,,I had to press Q for no change and P for changes. I would then rate how sure I was. It was 108 videos that I would watch once and decide if the shape coming out the other side was the same or not.,"To see if you can see slight differences, quickly.",Everything worked really well.,1425793.1,concave_nofill_area2,different,shape5_concave_nofill_area2,1,1,concave_nofill
shape7,convex_area1,5,53,different,9,2036.8,56bd0347d4e218000ca87e53,ducktruck,v001,1411265.7,60e37abdc60a8398fd63c9e4,60ef2379c3b5d55b8c8aaa61,Chrome,91,957,1903,1080,1920,q, -- select an option -- ,,I had to press Q for no change and P for changes. I would then rate how sure I was. It was 108 videos that I would watch once and decide if the shape coming out the other side was the same or not.,"To see if you can see slight differences, quickly.",Everything worked really well.,1425793.1,convex_area1,different,shape7_convex_area1,1,1,convex
catch_shape,change6,6,54,different,9,1340.6,56bd0347d4e218000ca87e53,ducktruck,v001,1411265.7,60e37abdc60a8398fd63c9e4,60ef2379c3b5d55b8c8aaa61,Chrome,91,957,1903,1080,1920,q, -- select an option -- ,,I had to press Q for no change and P for changes. I would then rate how sure I was. It was 108 videos that I would watch once and decide if the shape coming out the other side was the same or not.,"To see if you can see slight differences, quickly.",Everything worked really well.,1425793.1,change6,different,catch_shape_change6,1,1,none
shape5,no_change6,6,55,same,8,1645.7,56bd0347d4e218000ca87e53,ducktruck,v001,1411265.7,60e37abdc60a8398fd63c9e4,60ef2379c3b5d55b8c8aaa61,Chrome,91,957,1903,1080,1920,q, -- select an option -- ,,I had to press Q for no change and P for changes. I would then rate how sure I was. It was 108 videos that I would watch once and decide if the shape coming out the other side was the same or not.,"To see if you can see slight differences, quickly.",Everything worked really well.,1425793.1,no_change,same,shape5_no_change6,1,1,none
shape8,concave_nofill_area1,6,56,different,9,1692.5,56bd0347d4e218000ca87e53,ducktruck,v001,1411265.7,60e37abdc60a8398fd63c9e4,60ef2379c3b5d55b8c8aaa61,Chrome,91,957,1903,1080,1920,q, -- select an option -- ,,I had to press Q for no change and P for changes. I would then rate how sure I was. It was 108 videos that I would watch once and decide if the shape coming out the other side was the same or not.,"To see if you can see slight differences, quickly.",Everything worked really well.,1425793.1,concave_nofill_area1,different,shape8_concave_nofill_area1,1,1,concave_nofill
shape4,no_change3,6,57,same,9,2184.3,56bd0347d4e218000ca87e53,ducktruck,v001,1411265.7,60e37abdc60a8398fd63c9e4,60ef2379c3b5d55b8c8aaa61,Chrome,91,957,1903,1080,1920,q, -- select an option -- ,,I had to press Q for no change and P for changes. I would then rate how sure I was. It was 108 videos that I would watch once and decide if the shape coming out the other side was the same or not.,"To see if you can see slight differences, quickly.",Everything worked really well.,1425793.1,no_change,same,shape4_no_change3,1,1,none
shape2,no_change2,6,58,same,9,1675.4,56bd0347d4e218000ca87e53,ducktruck,v001,1411265.7,60e37abdc60a8398fd63c9e4,60ef2379c3b5d55b8c8aaa61,Chrome,91,957,1903,1080,1920,q, -- select an option -- ,,I had to press Q for no change and P for changes. I would then rate how sure I was. It was 108 videos that I would watch once and decide if the shape coming out the other side was the same or not.,"To see if you can see slight differences, quickly.",Everything worked really well.,1425793.1,no_change,same,shape2_no_change2,1,1,none
shape7,no_change4,6,59,same,8,1268.0,56bd0347d4e218000ca87e53,ducktruck,v001,1411265.7,60e37abdc60a8398fd63c9e4,60ef2379c3b5d55b8c8aaa61,Chrome,91,957,1903,1080,1920,q, -- select an option -- ,,I had to press Q for no change and P for changes. I would then rate how sure I was. It was 108 videos that I would watch once and decide if the shape coming out the other side was the same or not.,"To see if you can see slight differences, quickly.",Everything worked really well.,1425793.1,no_change,same,shape7_no_change4,1,1,none
shape3,no_change3,6,60,same,7,1632.9,56bd0347d4e218000ca87e53,ducktruck,v001,1411265.7,60e37abdc60a8398fd63c9e4,60ef2379c3b5d55b8c8aaa61,Chrome,91,957,1903,1080,1920,q, -- select an option -- ,,I had to press Q for no change and P for changes. I would then rate how sure I was. It was 108 videos that I would watch once and decide if the shape coming out the other side was the same or not.,"To see if you can see slight differences, quickly.",Everything worked really well.,1425793.1,no_change,same,shape3_no_change3,1,1,none
shape1,convex_area1,6,61,different,6,1500.3,56bd0347d4e218000ca87e53,ducktruck,v001,1411265.7,60e37abdc60a8398fd63c9e4,60ef2379c3b5d55b8c8aaa61,Chrome,91,957,1903,1080,1920,q, -- select an option -- ,,I had to press Q for no change and P for changes. I would then rate how sure I was. It was 108 videos that I would watch once and decide if the shape coming out the other side was the same or not.,"To see if you can see slight differences, quickly.",Everything worked really well.,1425793.1,convex_area1,different,shape1_convex_area1,1,1,convex
shape6,no_change3,6,62,same,6,1364.5,56bd0347d4e218000ca87e53,ducktruck,v001,1411265.7,60e37abdc60a8398fd63c9e4,60ef2379c3b5d55b8c8aaa61,Chrome,91,957,1903,1080,1920,q, -- select an option -- ,,I had to press Q for no change and P for changes. I would then rate how sure I was. It was 108 videos that I would watch once and decide if the shape coming out the other side was the same or not.,"To see if you can see slight differences, quickly.",Everything worked really well.,1425793.1,no_change,same,shape6_no_change3,1,1,none
shape1,no_change3,7,63,same,5,2406.7,56bd0347d4e218000ca87e53,ducktruck,v001,1411265.7,60e37abdc60a8398fd63c9e4,60ef2379c3b5d55b8c8aaa61,Chrome,91,957,1903,1080,1920,q, -- select an option -- ,,I had to press Q for no change and P for changes. I would then rate how sure I was. It was 108 videos that I would watch once and decide if the shape coming out the other side was the same or not.,"To see if you can see slight differences, quickly.",Everything worked really well.,1425793.1,no_change,same,shape1_no_change3,1,1,none
shape6,concave_area2,7,64,different,5,1535.9,56bd0347d4e218000ca87e53,ducktruck,v001,1411265.7,60e37abdc60a8398fd63c9e4,60ef2379c3b5d55b8c8aaa61,Chrome,91,957,1903,1080,1920,q, -- select an option -- ,,I had to press Q for no change and P for changes. I would then rate how sure I was. It was 108 videos that I would watch once and decide if the shape coming out the other side was the same or not.,"To see if you can see slight differences, quickly.",Everything worked really well.,1425793.1,concave_area2,different,shape6_concave_area2,1,1,concave
shape2,no_change3,7,65,same,6,1922.3,56bd0347d4e218000ca87e53,ducktruck,v001,1411265.7,60e37abdc60a8398fd63c9e4,60ef2379c3b5d55b8c8aaa61,Chrome,91,957,1903,1080,1920,q, -- select an option -- ,,I had to press Q for no change and P for changes. I would then rate how sure I was. It was 108 videos that I would watch once and decide if the shape coming out the other side was the same or not.,"To see if you can see slight differences, quickly.",Everything worked really well.,1425793.1,no_change,same,shape2_no_change3,1,1,none
shape8,no_change5,7,66,same,8,1621.1,56bd0347d4e218000ca87e53,ducktruck,v001,1411265.7,60e37abdc60a8398fd63c9e4,60ef2379c3b5d55b8c8aaa61,Chrome,91,957,1903,1080,1920,q, -- select an option -- ,,I had to press Q for no change and P for changes. I would then rate how sure I was. It was 108 videos that I would watch once and decide if the shape coming out the other side was the same or not.,"To see if you can see slight differences, quickly.",Everything worked really well.,1425793.1,no_change,same,shape8_no_change5,1,1,none
catch_shape,change3,7,67,different,9,1525.7,56bd0347d4e218000ca87e53,ducktruck,v001,1411265.7,60e37abdc60a8398fd63c9e4,60ef2379c3b5d55b8c8aaa61,Chrome,91,957,1903,1080,1920,q, -- select an option -- ,,I had to press Q for no change and P for changes. I would then rate how sure I was. It was 108 videos that I would watch once and decide if the shape coming out the other side was the same or not.,"To see if you can see slight differences, quickly.",Everything worked really well.,1425793.1,change3,different,catch_shape_change3,1,1,none
shape3,no_change4,7,68,same,8,1892.1,56bd0347d4e218000ca87e53,ducktruck,v001,1411265.7,60e37abdc60a8398fd63c9e4,60ef2379c3b5d55b8c8aaa61,Chrome,91,957,1903,1080,1920,q, -- select an option -- ,,I had to press Q for no change and P for changes. I would then rate how sure I was. It was 108 videos that I would watch once and decide if the shape coming out the other side was the same or not.,"To see if you can see slight differences, quickly.",Everything worked really well.,1425793.1,no_change,same,shape3_no_change4,1,1,none
shape7,no_change5,7,69,same,9,964.1,56bd0347d4e218000ca87e53,ducktruck,v001,1411265.7,60e37abdc60a8398fd63c9e4,60ef2379c3b5d55b8c8aaa61,Chrome,91,957,1903,1080,1920,q, -- select an option -- ,,I had to press Q for no change and P for changes. I would then rate how sure I was. It was 108 videos that I would watch once and decide if the shape coming out the other side was the same or not.,"To see if you can see slight differences, quickly.",Everything worked really well.,1425793.1,no_change,same,shape7_no_change5,1,1,none
shape4,concave_nofill_area2,7,70,different,9,1765.1,56bd0347d4e218000ca87e53,ducktruck,v001,1411265.7,60e37abdc60a8398fd63c9e4,60ef2379c3b5d55b8c8aaa61,Chrome,91,957,1903,1080,1920,q, -- select an option -- ,,I had to press Q for no change and P for changes. I would then rate how sure I was. It was 108 videos that I would watch once and decide if the shape coming out the other side was the same or not.,"To see if you can see slight differences, quickly.",Everything worked really well.,1425793.1,concave_nofill_area2,different,shape4_concave_nofill_area2,1,1,concave_nofill
shape5,concave_area1,7,71,different,8,2013.7,56bd0347d4e218000ca87e53,ducktruck,v001,1411265.7,60e37abdc60a8398fd63c9e4,60ef2379c3b5d55b8c8aaa61,Chrome,91,957,1903,1080,1920,q, -- select an option -- ,,I had to press Q for no change and P for changes. I would then rate how sure I was. It was 108 videos that I would watch once and decide if the shape coming out the other side was the same or not.,"To see if you can see slight differences, quickly.",Everything worked really well.,1425793.1,concave_area1,different,shape5_concave_area1,1,1,concave
shape1,no_change4,8,72,same,9,2078.3,56bd0347d4e218000ca87e53,ducktruck,v001,1411265.7,60e37abdc60a8398fd63c9e4,60ef2379c3b5d55b8c8aaa61,Chrome,91,957,1903,1080,1920,q, -- select an option -- ,,I had to press Q for no change and P for changes. I would then rate how sure I was. It was 108 videos that I would watch once and decide if the shape coming out the other side was the same or not.,"To see if you can see slight differences, quickly.",Everything worked really well.,1425793.1,no_change,same,shape1_no_change4,1,1,none
shape2,no_change5,8,73,same,8,1371.8,56bd0347d4e218000ca87e53,ducktruck,v001,1411265.7,60e37abdc60a8398fd63c9e4,60ef2379c3b5d55b8c8aaa61,Chrome,91,957,1903,1080,1920,q, -- select an option -- ,,I had to press Q for no change and P for changes. I would then rate how sure I was. It was 108 videos that I would watch once and decide if the shape coming out the other side was the same or not.,"To see if you can see slight differences, quickly.",Everything worked really well.,1425793.1,no_change,same,shape2_no_change5,1,1,none
