shape,changeType,blockNum,trialID,response,confidence,rt,subjectID,experimentName,experimentVersion,experimentTime,studyID,sessionID,browserName,browserVersion,displayWindowHeight,displayWindowWidth,displayScreenHeight,displayScreenWidth,change_key,gender,age,taskGuess,purposeGuess,commentText,totalTime,collapsedChange,correctAnswer,fullShapeName,shape_color,video_direction,responded_correctly,count,analysisChangeType
shape6,no_change1,0,0,same,8,5088.3,558980cdfdf99b7ae47f5a75,ducktruck,control,2127077.7,611a8cbde46ef77ccdf8b0c1,611abc2dcbd349bae6b453c2,Chrome,92,761,1453,1440,2560,q, -- select an option -- ,,Looking at two photos of unusual shapes & trying to detect if there was a change between the two objects. ,Determining if people could detect a change in objects when shown similar ones in rapid succession.,"Everything went well though I do want to mention there were a couple of times my dog started barking downstairs so I was a bit more distracted than I expected, though I do still feel fairly confident in most of my answers. ",2320196.7,no_change,same,shape6_no_change1,0.745635528,rl,1,1,none
catch_shape,change1,0,1,different,9,3265.9,558980cdfdf99b7ae47f5a75,ducktruck,control,2127077.7,611a8cbde46ef77ccdf8b0c1,611abc2dcbd349bae6b453c2,Chrome,92,761,1453,1440,2560,q, -- select an option -- ,,Looking at two photos of unusual shapes & trying to detect if there was a change between the two objects. ,Determining if people could detect a change in objects when shown similar ones in rapid succession.,"Everything went well though I do want to mention there were a couple of times my dog started barking downstairs so I was a bit more distracted than I expected, though I do still feel fairly confident in most of my answers. ",2320196.7,change1,different,catch_shape_change1,0.28546034600000003,lr,1,1,none
shape4,no_change1,0,2,same,9,2182.2,558980cdfdf99b7ae47f5a75,ducktruck,control,2127077.7,611a8cbde46ef77ccdf8b0c1,611abc2dcbd349bae6b453c2,Chrome,92,761,1453,1440,2560,q, -- select an option -- ,,Looking at two photos of unusual shapes & trying to detect if there was a change between the two objects. ,Determining if people could detect a change in objects when shown similar ones in rapid succession.,"Everything went well though I do want to mention there were a couple of times my dog started barking downstairs so I was a bit more distracted than I expected, though I do still feel fairly confident in most of my answers. ",2320196.7,no_change,same,shape4_no_change1,0.088270385,rl,1,1,none
shape5,no_change4,0,3,same,9,3093.5,558980cdfdf99b7ae47f5a75,ducktruck,control,2127077.7,611a8cbde46ef77ccdf8b0c1,611abc2dcbd349bae6b453c2,Chrome,92,761,1453,1440,2560,q, -- select an option -- ,,Looking at two photos of unusual shapes & trying to detect if there was a change between the two objects. ,Determining if people could detect a change in objects when shown similar ones in rapid succession.,"Everything went well though I do want to mention there were a couple of times my dog started barking downstairs so I was a bit more distracted than I expected, though I do still feel fairly confident in most of my answers. ",2320196.7,no_change,same,shape5_no_change4,0.613567155,rl,1,1,none
shape1,no_change4,0,4,same,9,1870.6,558980cdfdf99b7ae47f5a75,ducktruck,control,2127077.7,611a8cbde46ef77ccdf8b0c1,611abc2dcbd349bae6b453c2,Chrome,92,761,1453,1440,2560,q, -- select an option -- ,,Looking at two photos of unusual shapes & trying to detect if there was a change between the two objects. ,Determining if people could detect a change in objects when shown similar ones in rapid succession.,"Everything went well though I do want to mention there were a couple of times my dog started barking downstairs so I was a bit more distracted than I expected, though I do still feel fairly confident in most of my answers. ",2320196.7,no_change,same,shape1_no_change4,0.658603498,rl,1,1,none
shape8,no_change5,0,5,same,9,1741.4,558980cdfdf99b7ae47f5a75,ducktruck,control,2127077.7,611a8cbde46ef77ccdf8b0c1,611abc2dcbd349bae6b453c2,Chrome,92,761,1453,1440,2560,q, -- select an option -- ,,Looking at two photos of unusual shapes & trying to detect if there was a change between the two objects. ,Determining if people could detect a change in objects when shown similar ones in rapid succession.,"Everything went well though I do want to mention there were a couple of times my dog started barking downstairs so I was a bit more distracted than I expected, though I do still feel fairly confident in most of my answers. ",2320196.7,no_change,same,shape8_no_change5,0.568193067,lr,1,1,none
shape3,no_change3,0,6,same,9,2165.9,558980cdfdf99b7ae47f5a75,ducktruck,control,2127077.7,611a8cbde46ef77ccdf8b0c1,611abc2dcbd349bae6b453c2,Chrome,92,761,1453,1440,2560,q, -- select an option -- ,,Looking at two photos of unusual shapes & trying to detect if there was a change between the two objects. ,Determining if people could detect a change in objects when shown similar ones in rapid succession.,"Everything went well though I do want to mention there were a couple of times my dog started barking downstairs so I was a bit more distracted than I expected, though I do still feel fairly confident in most of my answers. ",2320196.7,no_change,same,shape3_no_change3,0.9082113690000001,lr,1,1,none
shape2,no_change6,0,7,same,9,2702.0,558980cdfdf99b7ae47f5a75,ducktruck,control,2127077.7,611a8cbde46ef77ccdf8b0c1,611abc2dcbd349bae6b453c2,Chrome,92,761,1453,1440,2560,q, -- select an option -- ,,Looking at two photos of unusual shapes & trying to detect if there was a change between the two objects. ,Determining if people could detect a change in objects when shown similar ones in rapid succession.,"Everything went well though I do want to mention there were a couple of times my dog started barking downstairs so I was a bit more distracted than I expected, though I do still feel fairly confident in most of my answers. ",2320196.7,no_change,same,shape2_no_change6,0.968780552,lr,1,1,none
shape7,concave_nofill_area1,0,8,different,9,3021.6,558980cdfdf99b7ae47f5a75,ducktruck,control,2127077.7,611a8cbde46ef77ccdf8b0c1,611abc2dcbd349bae6b453c2,Chrome,92,761,1453,1440,2560,q, -- select an option -- ,,Looking at two photos of unusual shapes & trying to detect if there was a change between the two objects. ,Determining if people could detect a change in objects when shown similar ones in rapid succession.,"Everything went well though I do want to mention there were a couple of times my dog started barking downstairs so I was a bit more distracted than I expected, though I do still feel fairly confident in most of my answers. ",2320196.7,concave_nofill_area1,different,shape7_concave_nofill_area1,,,1,1,concave_nofill
shape3,convex_area2,1,9,same,9,1638.3,558980cdfdf99b7ae47f5a75,ducktruck,control,2127077.7,611a8cbde46ef77ccdf8b0c1,611abc2dcbd349bae6b453c2,Chrome,92,761,1453,1440,2560,q, -- select an option -- ,,Looking at two photos of unusual shapes & trying to detect if there was a change between the two objects. ,Determining if people could detect a change in objects when shown similar ones in rapid succession.,"Everything went well though I do want to mention there were a couple of times my dog started barking downstairs so I was a bit more distracted than I expected, though I do still feel fairly confident in most of my answers. ",2320196.7,convex_area2,different,shape3_convex_area2,,,0,1,convex
shape2,convex_area2,1,10,different,9,2908.2,558980cdfdf99b7ae47f5a75,ducktruck,control,2127077.7,611a8cbde46ef77ccdf8b0c1,611abc2dcbd349bae6b453c2,Chrome,92,761,1453,1440,2560,q, -- select an option -- ,,Looking at two photos of unusual shapes & trying to detect if there was a change between the two objects. ,Determining if people could detect a change in objects when shown similar ones in rapid succession.,"Everything went well though I do want to mention there were a couple of times my dog started barking downstairs so I was a bit more distracted than I expected, though I do still feel fairly confident in most of my answers. ",2320196.7,convex_area2,different,shape2_convex_area2,,,1,1,convex
shape8,concave_area1,1,11,different,9,2038.4,558980cdfdf99b7ae47f5a75,ducktruck,control,2127077.7,611a8cbde46ef77ccdf8b0c1,611abc2dcbd349bae6b453c2,Chrome,92,761,1453,1440,2560,q, -- select an option -- ,,Looking at two photos of unusual shapes & trying to detect if there was a change between the two objects. ,Determining if people could detect a change in objects when shown similar ones in rapid succession.,"Everything went well though I do want to mention there were a couple of times my dog started barking downstairs so I was a bit more distracted than I expected, though I do still feel fairly confident in most of my answers. ",2320196.7,concave_area1,different,shape8_concave_area1,,,1,1,concave
shape5,concave_area1,1,12,different,7,3116.3,558980cdfdf99b7ae47f5a75,ducktruck,control,2127077.7,611a8cbde46ef77ccdf8b0c1,611abc2dcbd349bae6b453c2,Chrome,92,761,1453,1440,2560,q, -- select an option -- ,,Looking at two photos of unusual shapes & trying to detect if there was a change between the two objects. ,Determining if people could detect a change in objects when shown similar ones in rapid succession.,"Everything went well though I do want to mention there were a couple of times my dog started barking downstairs so I was a bit more distracted than I expected, though I do still feel fairly confident in most of my answers. ",2320196.7,concave_area1,different,shape5_concave_area1,,,1,1,concave
shape1,convex_area2,1,13,different,9,1663.1,558980cdfdf99b7ae47f5a75,ducktruck,control,2127077.7,611a8cbde46ef77ccdf8b0c1,611abc2dcbd349bae6b453c2,Chrome,92,761,1453,1440,2560,q, -- select an option -- ,,Looking at two photos of unusual shapes & trying to detect if there was a change between the two objects. ,Determining if people could detect a change in objects when shown similar ones in rapid succession.,"Everything went well though I do want to mention there were a couple of times my dog started barking downstairs so I was a bit more distracted than I expected, though I do still feel fairly confident in most of my answers. ",2320196.7,convex_area2,different,shape1_convex_area2,,,1,1,convex
shape4,no_change4,1,14,same,9,2033.0,558980cdfdf99b7ae47f5a75,ducktruck,control,2127077.7,611a8cbde46ef77ccdf8b0c1,611abc2dcbd349bae6b453c2,Chrome,92,761,1453,1440,2560,q, -- select an option -- ,,Looking at two photos of unusual shapes & trying to detect if there was a change between the two objects. ,Determining if people could detect a change in objects when shown similar ones in rapid succession.,"Everything went well though I do want to mention there were a couple of times my dog started barking downstairs so I was a bit more distracted than I expected, though I do still feel fairly confident in most of my answers. ",2320196.7,no_change,same,shape4_no_change4,0.36513163600000004,lr,1,1,none
shape6,concave_nofill_area2,1,15,different,9,1526.4,558980cdfdf99b7ae47f5a75,ducktruck,control,2127077.7,611a8cbde46ef77ccdf8b0c1,611abc2dcbd349bae6b453c2,Chrome,92,761,1453,1440,2560,q, -- select an option -- ,,Looking at two photos of unusual shapes & trying to detect if there was a change between the two objects. ,Determining if people could detect a change in objects when shown similar ones in rapid succession.,"Everything went well though I do want to mention there were a couple of times my dog started barking downstairs so I was a bit more distracted than I expected, though I do still feel fairly confident in most of my answers. ",2320196.7,concave_nofill_area2,different,shape6_concave_nofill_area2,,,1,1,concave_nofill
shape7,convex_area2,1,16,different,9,2454.5,558980cdfdf99b7ae47f5a75,ducktruck,control,2127077.7,611a8cbde46ef77ccdf8b0c1,611abc2dcbd349bae6b453c2,Chrome,92,761,1453,1440,2560,q, -- select an option -- ,,Looking at two photos of unusual shapes & trying to detect if there was a change between the two objects. ,Determining if people could detect a change in objects when shown similar ones in rapid succession.,"Everything went well though I do want to mention there were a couple of times my dog started barking downstairs so I was a bit more distracted than I expected, though I do still feel fairly confident in most of my answers. ",2320196.7,convex_area2,different,shape7_convex_area2,,,1,1,convex
catch_shape,change2,1,17,different,9,1509.9,558980cdfdf99b7ae47f5a75,ducktruck,control,2127077.7,611a8cbde46ef77ccdf8b0c1,611abc2dcbd349bae6b453c2,Chrome,92,761,1453,1440,2560,q, -- select an option -- ,,Looking at two photos of unusual shapes & trying to detect if there was a change between the two objects. ,Determining if people could detect a change in objects when shown similar ones in rapid succession.,"Everything went well though I do want to mention there were a couple of times my dog started barking downstairs so I was a bit more distracted than I expected, though I do still feel fairly confident in most of my answers. ",2320196.7,change2,different,catch_shape_change2,0.041068991,lr,1,1,none
shape1,no_change1,2,18,same,8,2758.0,558980cdfdf99b7ae47f5a75,ducktruck,control,2127077.7,611a8cbde46ef77ccdf8b0c1,611abc2dcbd349bae6b453c2,Chrome,92,761,1453,1440,2560,q, -- select an option -- ,,Looking at two photos of unusual shapes & trying to detect if there was a change between the two objects. ,Determining if people could detect a change in objects when shown similar ones in rapid succession.,"Everything went well though I do want to mention there were a couple of times my dog started barking downstairs so I was a bit more distracted than I expected, though I do still feel fairly confident in most of my answers. ",2320196.7,no_change,same,shape1_no_change1,0.016503743,lr,1,1,none
shape7,no_change4,2,19,different,5,4334.3,558980cdfdf99b7ae47f5a75,ducktruck,control,2127077.7,611a8cbde46ef77ccdf8b0c1,611abc2dcbd349bae6b453c2,Chrome,92,761,1453,1440,2560,q, -- select an option -- ,,Looking at two photos of unusual shapes & trying to detect if there was a change between the two objects. ,Determining if people could detect a change in objects when shown similar ones in rapid succession.,"Everything went well though I do want to mention there were a couple of times my dog started barking downstairs so I was a bit more distracted than I expected, though I do still feel fairly confident in most of my answers. ",2320196.7,no_change,same,shape7_no_change4,0.137952561,rl,0,1,none
shape6,concave_area2,2,20,different,8,2174.7,558980cdfdf99b7ae47f5a75,ducktruck,control,2127077.7,611a8cbde46ef77ccdf8b0c1,611abc2dcbd349bae6b453c2,Chrome,92,761,1453,1440,2560,q, -- select an option -- ,,Looking at two photos of unusual shapes & trying to detect if there was a change between the two objects. ,Determining if people could detect a change in objects when shown similar ones in rapid succession.,"Everything went well though I do want to mention there were a couple of times my dog started barking downstairs so I was a bit more distracted than I expected, though I do still feel fairly confident in most of my answers. ",2320196.7,concave_area2,different,shape6_concave_area2,,,1,1,concave
catch_shape,no_change2,2,21,same,9,1710.7,558980cdfdf99b7ae47f5a75,ducktruck,control,2127077.7,611a8cbde46ef77ccdf8b0c1,611abc2dcbd349bae6b453c2,Chrome,92,761,1453,1440,2560,q, -- select an option -- ,,Looking at two photos of unusual shapes & trying to detect if there was a change between the two objects. ,Determining if people could detect a change in objects when shown similar ones in rapid succession.,"Everything went well though I do want to mention there were a couple of times my dog started barking downstairs so I was a bit more distracted than I expected, though I do still feel fairly confident in most of my answers. ",2320196.7,no_change,same,catch_shape_no_change2,0.245336605,lr,1,1,none
shape2,concave_nofill_area2,2,22,different,8,1861.8,558980cdfdf99b7ae47f5a75,ducktruck,control,2127077.7,611a8cbde46ef77ccdf8b0c1,611abc2dcbd349bae6b453c2,Chrome,92,761,1453,1440,2560,q, -- select an option -- ,,Looking at two photos of unusual shapes & trying to detect if there was a change between the two objects. ,Determining if people could detect a change in objects when shown similar ones in rapid succession.,"Everything went well though I do want to mention there were a couple of times my dog started barking downstairs so I was a bit more distracted than I expected, though I do still feel fairly confident in most of my answers. ",2320196.7,concave_nofill_area2,different,shape2_concave_nofill_area2,,,1,1,concave_nofill
shape5,concave_nofill_area1,2,23,different,9,2503.4,558980cdfdf99b7ae47f5a75,ducktruck,control,2127077.7,611a8cbde46ef77ccdf8b0c1,611abc2dcbd349bae6b453c2,Chrome,92,761,1453,1440,2560,q, -- select an option -- ,,Looking at two photos of unusual shapes & trying to detect if there was a change between the two objects. ,Determining if people could detect a change in objects when shown similar ones in rapid succession.,"Everything went well though I do want to mention there were a couple of times my dog started barking downstairs so I was a bit more distracted than I expected, though I do still feel fairly confident in most of my answers. ",2320196.7,concave_nofill_area1,different,shape5_concave_nofill_area1,,,1,1,concave_nofill
shape3,no_change6,2,24,same,9,1702.9,558980cdfdf99b7ae47f5a75,ducktruck,control,2127077.7,611a8cbde46ef77ccdf8b0c1,611abc2dcbd349bae6b453c2,Chrome,92,761,1453,1440,2560,q, -- select an option -- ,,Looking at two photos of unusual shapes & trying to detect if there was a change between the two objects. ,Determining if people could detect a change in objects when shown similar ones in rapid succession.,"Everything went well though I do want to mention there were a couple of times my dog started barking downstairs so I was a bit more distracted than I expected, though I do still feel fairly confident in most of my answers. ",2320196.7,no_change,same,shape3_no_change6,0.20130798800000002,rl,1,1,none
shape4,no_change3,2,25,same,9,2151.8,558980cdfdf99b7ae47f5a75,ducktruck,control,2127077.7,611a8cbde46ef77ccdf8b0c1,611abc2dcbd349bae6b453c2,Chrome,92,761,1453,1440,2560,q, -- select an option -- ,,Looking at two photos of unusual shapes & trying to detect if there was a change between the two objects. ,Determining if people could detect a change in objects when shown similar ones in rapid succession.,"Everything went well though I do want to mention there were a couple of times my dog started barking downstairs so I was a bit more distracted than I expected, though I do still feel fairly confident in most of my answers. ",2320196.7,no_change,same,shape4_no_change3,0.37374584899999996,rl,1,1,none
shape8,no_change4,2,26,same,9,1571.5,558980cdfdf99b7ae47f5a75,ducktruck,control,2127077.7,611a8cbde46ef77ccdf8b0c1,611abc2dcbd349bae6b453c2,Chrome,92,761,1453,1440,2560,q, -- select an option -- ,,Looking at two photos of unusual shapes & trying to detect if there was a change between the two objects. ,Determining if people could detect a change in objects when shown similar ones in rapid succession.,"Everything went well though I do want to mention there were a couple of times my dog started barking downstairs so I was a bit more distracted than I expected, though I do still feel fairly confident in most of my answers. ",2320196.7,no_change,same,shape8_no_change4,0.067118883,lr,1,1,none
shape1,no_change6,3,27,same,9,2189.6,558980cdfdf99b7ae47f5a75,ducktruck,control,2127077.7,611a8cbde46ef77ccdf8b0c1,611abc2dcbd349bae6b453c2,Chrome,92,761,1453,1440,2560,q, -- select an option -- ,,Looking at two photos of unusual shapes & trying to detect if there was a change between the two objects. ,Determining if people could detect a change in objects when shown similar ones in rapid succession.,"Everything went well though I do want to mention there were a couple of times my dog started barking downstairs so I was a bit more distracted than I expected, though I do still feel fairly confident in most of my answers. ",2320196.7,no_change,same,shape1_no_change6,0.440461145,rl,1,1,none
shape2,no_change3,3,28,same,9,4934.3,558980cdfdf99b7ae47f5a75,ducktruck,control,2127077.7,611a8cbde46ef77ccdf8b0c1,611abc2dcbd349bae6b453c2,Chrome,92,761,1453,1440,2560,q, -- select an option -- ,,Looking at two photos of unusual shapes & trying to detect if there was a change between the two objects. ,Determining if people could detect a change in objects when shown similar ones in rapid succession.,"Everything went well though I do want to mention there were a couple of times my dog started barking downstairs so I was a bit more distracted than I expected, though I do still feel fairly confident in most of my answers. ",2320196.7,no_change,same,shape2_no_change3,0.99679993,rl,1,1,none
shape6,no_change2,3,29,same,7,3147.7,558980cdfdf99b7ae47f5a75,ducktruck,control,2127077.7,611a8cbde46ef77ccdf8b0c1,611abc2dcbd349bae6b453c2,Chrome,92,761,1453,1440,2560,q, -- select an option -- ,,Looking at two photos of unusual shapes & trying to detect if there was a change between the two objects. ,Determining if people could detect a change in objects when shown similar ones in rapid succession.,"Everything went well though I do want to mention there were a couple of times my dog started barking downstairs so I was a bit more distracted than I expected, though I do still feel fairly confident in most of my answers. ",2320196.7,no_change,same,shape6_no_change2,0.914900387,rl,1,1,none
shape7,concave_area2,3,30,different,9,4808.6,558980cdfdf99b7ae47f5a75,ducktruck,control,2127077.7,611a8cbde46ef77ccdf8b0c1,611abc2dcbd349bae6b453c2,Chrome,92,761,1453,1440,2560,q, -- select an option -- ,,Looking at two photos of unusual shapes & trying to detect if there was a change between the two objects. ,Determining if people could detect a change in objects when shown similar ones in rapid succession.,"Everything went well though I do want to mention there were a couple of times my dog started barking downstairs so I was a bit more distracted than I expected, though I do still feel fairly confident in most of my answers. ",2320196.7,concave_area2,different,shape7_concave_area2,,,1,1,concave
shape5,no_change5,3,31,same,8,3470.4,558980cdfdf99b7ae47f5a75,ducktruck,control,2127077.7,611a8cbde46ef77ccdf8b0c1,611abc2dcbd349bae6b453c2,Chrome,92,761,1453,1440,2560,q, -- select an option -- ,,Looking at two photos of unusual shapes & trying to detect if there was a change between the two objects. ,Determining if people could detect a change in objects when shown similar ones in rapid succession.,"Everything went well though I do want to mention there were a couple of times my dog started barking downstairs so I was a bit more distracted than I expected, though I do still feel fairly confident in most of my answers. ",2320196.7,no_change,same,shape5_no_change5,0.56268488,rl,1,1,none
shape8,no_change3,3,32,different,8,2733.4,558980cdfdf99b7ae47f5a75,ducktruck,control,2127077.7,611a8cbde46ef77ccdf8b0c1,611abc2dcbd349bae6b453c2,Chrome,92,761,1453,1440,2560,q, -- select an option -- ,,Looking at two photos of unusual shapes & trying to detect if there was a change between the two objects. ,Determining if people could detect a change in objects when shown similar ones in rapid succession.,"Everything went well though I do want to mention there were a couple of times my dog started barking downstairs so I was a bit more distracted than I expected, though I do still feel fairly confident in most of my answers. ",2320196.7,no_change,same,shape8_no_change3,0.848020062,rl,0,1,none
catch_shape,no_change5,3,33,same,9,1539.7,558980cdfdf99b7ae47f5a75,ducktruck,control,2127077.7,611a8cbde46ef77ccdf8b0c1,611abc2dcbd349bae6b453c2,Chrome,92,761,1453,1440,2560,q, -- select an option -- ,,Looking at two photos of unusual shapes & trying to detect if there was a change between the two objects. ,Determining if people could detect a change in objects when shown similar ones in rapid succession.,"Everything went well though I do want to mention there were a couple of times my dog started barking downstairs so I was a bit more distracted than I expected, though I do still feel fairly confident in most of my answers. ",2320196.7,no_change,same,catch_shape_no_change5,0.255306165,rl,1,1,none
shape3,no_change2,3,34,same,8,4026.0,558980cdfdf99b7ae47f5a75,ducktruck,control,2127077.7,611a8cbde46ef77ccdf8b0c1,611abc2dcbd349bae6b453c2,Chrome,92,761,1453,1440,2560,q, -- select an option -- ,,Looking at two photos of unusual shapes & trying to detect if there was a change between the two objects. ,Determining if people could detect a change in objects when shown similar ones in rapid succession.,"Everything went well though I do want to mention there were a couple of times my dog started barking downstairs so I was a bit more distracted than I expected, though I do still feel fairly confident in most of my answers. ",2320196.7,no_change,same,shape3_no_change2,0.7109621,lr,1,1,none
shape4,concave_area1,3,35,different,9,3966.5,558980cdfdf99b7ae47f5a75,ducktruck,control,2127077.7,611a8cbde46ef77ccdf8b0c1,611abc2dcbd349bae6b453c2,Chrome,92,761,1453,1440,2560,q, -- select an option -- ,,Looking at two photos of unusual shapes & trying to detect if there was a change between the two objects. ,Determining if people could detect a change in objects when shown similar ones in rapid succession.,"Everything went well though I do want to mention there were a couple of times my dog started barking downstairs so I was a bit more distracted than I expected, though I do still feel fairly confident in most of my answers. ",2320196.7,concave_area1,different,shape4_concave_area1,,,1,1,concave
shape1,no_change5,4,36,same,9,98590.5,558980cdfdf99b7ae47f5a75,ducktruck,control,2127077.7,611a8cbde46ef77ccdf8b0c1,611abc2dcbd349bae6b453c2,Chrome,92,761,1453,1440,2560,q, -- select an option -- ,,Looking at two photos of unusual shapes & trying to detect if there was a change between the two objects. ,Determining if people could detect a change in objects when shown similar ones in rapid succession.,"Everything went well though I do want to mention there were a couple of times my dog started barking downstairs so I was a bit more distracted than I expected, though I do still feel fairly confident in most of my answers. ",2320196.7,no_change,same,shape1_no_change5,0.982639687,rl,1,1,none
shape8,concave_area2,4,37,different,9,2351.1,558980cdfdf99b7ae47f5a75,ducktruck,control,2127077.7,611a8cbde46ef77ccdf8b0c1,611abc2dcbd349bae6b453c2,Chrome,92,761,1453,1440,2560,q, -- select an option -- ,,Looking at two photos of unusual shapes & trying to detect if there was a change between the two objects. ,Determining if people could detect a change in objects when shown similar ones in rapid succession.,"Everything went well though I do want to mention there were a couple of times my dog started barking downstairs so I was a bit more distracted than I expected, though I do still feel fairly confident in most of my answers. ",2320196.7,concave_area2,different,shape8_concave_area2,,,1,1,concave
shape7,convex_area1,4,38,different,9,2210.5,558980cdfdf99b7ae47f5a75,ducktruck,control,2127077.7,611a8cbde46ef77ccdf8b0c1,611abc2dcbd349bae6b453c2,Chrome,92,761,1453,1440,2560,q, -- select an option -- ,,Looking at two photos of unusual shapes & trying to detect if there was a change between the two objects. ,Determining if people could detect a change in objects when shown similar ones in rapid succession.,"Everything went well though I do want to mention there were a couple of times my dog started barking downstairs so I was a bit more distracted than I expected, though I do still feel fairly confident in most of my answers. ",2320196.7,convex_area1,different,shape7_convex_area1,,,1,1,convex
shape2,convex_area1,4,39,different,9,1797.5,558980cdfdf99b7ae47f5a75,ducktruck,control,2127077.7,611a8cbde46ef77ccdf8b0c1,611abc2dcbd349bae6b453c2,Chrome,92,761,1453,1440,2560,q, -- select an option -- ,,Looking at two photos of unusual shapes & trying to detect if there was a change between the two objects. ,Determining if people could detect a change in objects when shown similar ones in rapid succession.,"Everything went well though I do want to mention there were a couple of times my dog started barking downstairs so I was a bit more distracted than I expected, though I do still feel fairly confident in most of my answers. ",2320196.7,convex_area1,different,shape2_convex_area1,,,1,1,convex
shape4,convex_area2,4,40,different,8,2105.5,558980cdfdf99b7ae47f5a75,ducktruck,control,2127077.7,611a8cbde46ef77ccdf8b0c1,611abc2dcbd349bae6b453c2,Chrome,92,761,1453,1440,2560,q, -- select an option -- ,,Looking at two photos of unusual shapes & trying to detect if there was a change between the two objects. ,Determining if people could detect a change in objects when shown similar ones in rapid succession.,"Everything went well though I do want to mention there were a couple of times my dog started barking downstairs so I was a bit more distracted than I expected, though I do still feel fairly confident in most of my answers. ",2320196.7,convex_area2,different,shape4_convex_area2,,,1,1,convex
catch_shape,change3,4,41,different,9,2604.7,558980cdfdf99b7ae47f5a75,ducktruck,control,2127077.7,611a8cbde46ef77ccdf8b0c1,611abc2dcbd349bae6b453c2,Chrome,92,761,1453,1440,2560,q, -- select an option -- ,,Looking at two photos of unusual shapes & trying to detect if there was a change between the two objects. ,Determining if people could detect a change in objects when shown similar ones in rapid succession.,"Everything went well though I do want to mention there were a couple of times my dog started barking downstairs so I was a bit more distracted than I expected, though I do still feel fairly confident in most of my answers. ",2320196.7,change3,different,catch_shape_change3,0.641318987,lr,1,1,none
shape3,no_change1,4,42,same,9,1663.1,558980cdfdf99b7ae47f5a75,ducktruck,control,2127077.7,611a8cbde46ef77ccdf8b0c1,611abc2dcbd349bae6b453c2,Chrome,92,761,1453,1440,2560,q, -- select an option -- ,,Looking at two photos of unusual shapes & trying to detect if there was a change between the two objects. ,Determining if people could detect a change in objects when shown similar ones in rapid succession.,"Everything went well though I do want to mention there were a couple of times my dog started barking downstairs so I was a bit more distracted than I expected, though I do still feel fairly confident in most of my answers. ",2320196.7,no_change,same,shape3_no_change1,0.679856633,lr,1,1,none
shape5,no_change1,4,43,same,9,2474.1,558980cdfdf99b7ae47f5a75,ducktruck,control,2127077.7,611a8cbde46ef77ccdf8b0c1,611abc2dcbd349bae6b453c2,Chrome,92,761,1453,1440,2560,q, -- select an option -- ,,Looking at two photos of unusual shapes & trying to detect if there was a change between the two objects. ,Determining if people could detect a change in objects when shown similar ones in rapid succession.,"Everything went well though I do want to mention there were a couple of times my dog started barking downstairs so I was a bit more distracted than I expected, though I do still feel fairly confident in most of my answers. ",2320196.7,no_change,same,shape5_no_change1,0.8813361009999999,lr,1,1,none
shape6,convex_area1,4,44,different,9,1835.8,558980cdfdf99b7ae47f5a75,ducktruck,control,2127077.7,611a8cbde46ef77ccdf8b0c1,611abc2dcbd349bae6b453c2,Chrome,92,761,1453,1440,2560,q, -- select an option -- ,,Looking at two photos of unusual shapes & trying to detect if there was a change between the two objects. ,Determining if people could detect a change in objects when shown similar ones in rapid succession.,"Everything went well though I do want to mention there were a couple of times my dog started barking downstairs so I was a bit more distracted than I expected, though I do still feel fairly confident in most of my answers. ",2320196.7,convex_area1,different,shape6_convex_area1,,,1,1,convex
shape2,no_change2,5,45,same,8,1784.7,558980cdfdf99b7ae47f5a75,ducktruck,control,2127077.7,611a8cbde46ef77ccdf8b0c1,611abc2dcbd349bae6b453c2,Chrome,92,761,1453,1440,2560,q, -- select an option -- ,,Looking at two photos of unusual shapes & trying to detect if there was a change between the two objects. ,Determining if people could detect a change in objects when shown similar ones in rapid succession.,"Everything went well though I do want to mention there were a couple of times my dog started barking downstairs so I was a bit more distracted than I expected, though I do still feel fairly confident in most of my answers. ",2320196.7,no_change,same,shape2_no_change2,0.830736492,rl,1,1,none
shape3,convex_area1,5,46,different,7,2256.8,558980cdfdf99b7ae47f5a75,ducktruck,control,2127077.7,611a8cbde46ef77ccdf8b0c1,611abc2dcbd349bae6b453c2,Chrome,92,761,1453,1440,2560,q, -- select an option -- ,,Looking at two photos of unusual shapes & trying to detect if there was a change between the two objects. ,Determining if people could detect a change in objects when shown similar ones in rapid succession.,"Everything went well though I do want to mention there were a couple of times my dog started barking downstairs so I was a bit more distracted than I expected, though I do still feel fairly confident in most of my answers. ",2320196.7,convex_area1,different,shape3_convex_area1,,,1,1,convex
shape4,convex_area1,5,47,different,9,3567.7,558980cdfdf99b7ae47f5a75,ducktruck,control,2127077.7,611a8cbde46ef77ccdf8b0c1,611abc2dcbd349bae6b453c2,Chrome,92,761,1453,1440,2560,q, -- select an option -- ,,Looking at two photos of unusual shapes & trying to detect if there was a change between the two objects. ,Determining if people could detect a change in objects when shown similar ones in rapid succession.,"Everything went well though I do want to mention there were a couple of times my dog started barking downstairs so I was a bit more distracted than I expected, though I do still feel fairly confident in most of my answers. ",2320196.7,convex_area1,different,shape4_convex_area1,,,1,1,convex
shape7,no_change6,5,48,different,6,2098.6,558980cdfdf99b7ae47f5a75,ducktruck,control,2127077.7,611a8cbde46ef77ccdf8b0c1,611abc2dcbd349bae6b453c2,Chrome,92,761,1453,1440,2560,q, -- select an option -- ,,Looking at two photos of unusual shapes & trying to detect if there was a change between the two objects. ,Determining if people could detect a change in objects when shown similar ones in rapid succession.,"Everything went well though I do want to mention there were a couple of times my dog started barking downstairs so I was a bit more distracted than I expected, though I do still feel fairly confident in most of my answers. ",2320196.7,no_change,same,shape7_no_change6,0.48657649700000005,rl,0,1,none
shape5,concave_area2,5,49,different,9,1816.2,558980cdfdf99b7ae47f5a75,ducktruck,control,2127077.7,611a8cbde46ef77ccdf8b0c1,611abc2dcbd349bae6b453c2,Chrome,92,761,1453,1440,2560,q, -- select an option -- ,,Looking at two photos of unusual shapes & trying to detect if there was a change between the two objects. ,Determining if people could detect a change in objects when shown similar ones in rapid succession.,"Everything went well though I do want to mention there were a couple of times my dog started barking downstairs so I was a bit more distracted than I expected, though I do still feel fairly confident in most of my answers. ",2320196.7,concave_area2,different,shape5_concave_area2,,,1,1,concave
catch_shape,no_change1,5,50,same,9,3810.4,558980cdfdf99b7ae47f5a75,ducktruck,control,2127077.7,611a8cbde46ef77ccdf8b0c1,611abc2dcbd349bae6b453c2,Chrome,92,761,1453,1440,2560,q, -- select an option -- ,,Looking at two photos of unusual shapes & trying to detect if there was a change between the two objects. ,Determining if people could detect a change in objects when shown similar ones in rapid succession.,"Everything went well though I do want to mention there were a couple of times my dog started barking downstairs so I was a bit more distracted than I expected, though I do still feel fairly confident in most of my answers. ",2320196.7,no_change,same,catch_shape_no_change1,0.9534566409999999,lr,1,1,none
shape6,no_change4,5,51,same,9,2544.6,558980cdfdf99b7ae47f5a75,ducktruck,control,2127077.7,611a8cbde46ef77ccdf8b0c1,611abc2dcbd349bae6b453c2,Chrome,92,761,1453,1440,2560,q, -- select an option -- ,,Looking at two photos of unusual shapes & trying to detect if there was a change between the two objects. ,Determining if people could detect a change in objects when shown similar ones in rapid succession.,"Everything went well though I do want to mention there were a couple of times my dog started barking downstairs so I was a bit more distracted than I expected, though I do still feel fairly confident in most of my answers. ",2320196.7,no_change,same,shape6_no_change4,0.9643281770000001,lr,1,1,none
shape8,concave_nofill_area1,5,52,different,9,1939.5,558980cdfdf99b7ae47f5a75,ducktruck,control,2127077.7,611a8cbde46ef77ccdf8b0c1,611abc2dcbd349bae6b453c2,Chrome,92,761,1453,1440,2560,q, -- select an option -- ,,Looking at two photos of unusual shapes & trying to detect if there was a change between the two objects. ,Determining if people could detect a change in objects when shown similar ones in rapid succession.,"Everything went well though I do want to mention there were a couple of times my dog started barking downstairs so I was a bit more distracted than I expected, though I do still feel fairly confident in most of my answers. ",2320196.7,concave_nofill_area1,different,shape8_concave_nofill_area1,,,1,1,concave_nofill
shape1,concave_area1,5,53,different,7,2587.6,558980cdfdf99b7ae47f5a75,ducktruck,control,2127077.7,611a8cbde46ef77ccdf8b0c1,611abc2dcbd349bae6b453c2,Chrome,92,761,1453,1440,2560,q, -- select an option -- ,,Looking at two photos of unusual shapes & trying to detect if there was a change between the two objects. ,Determining if people could detect a change in objects when shown similar ones in rapid succession.,"Everything went well though I do want to mention there were a couple of times my dog started barking downstairs so I was a bit more distracted than I expected, though I do still feel fairly confident in most of my answers. ",2320196.7,concave_area1,different,shape1_concave_area1,,,1,1,concave
shape6,no_change6,6,54,same,9,2703.5,558980cdfdf99b7ae47f5a75,ducktruck,control,2127077.7,611a8cbde46ef77ccdf8b0c1,611abc2dcbd349bae6b453c2,Chrome,92,761,1453,1440,2560,q, -- select an option -- ,,Looking at two photos of unusual shapes & trying to detect if there was a change between the two objects. ,Determining if people could detect a change in objects when shown similar ones in rapid succession.,"Everything went well though I do want to mention there were a couple of times my dog started barking downstairs so I was a bit more distracted than I expected, though I do still feel fairly confident in most of my answers. ",2320196.7,no_change,same,shape6_no_change6,0.265877314,lr,1,1,none
shape5,no_change6,6,55,different,6,2174.5,558980cdfdf99b7ae47f5a75,ducktruck,control,2127077.7,611a8cbde46ef77ccdf8b0c1,611abc2dcbd349bae6b453c2,Chrome,92,761,1453,1440,2560,q, -- select an option -- ,,Looking at two photos of unusual shapes & trying to detect if there was a change between the two objects. ,Determining if people could detect a change in objects when shown similar ones in rapid succession.,"Everything went well though I do want to mention there were a couple of times my dog started barking downstairs so I was a bit more distracted than I expected, though I do still feel fairly confident in most of my answers. ",2320196.7,no_change,same,shape5_no_change6,0.15461751699999998,rl,0,1,none
shape4,concave_nofill_area2,6,56,different,9,2162.3,558980cdfdf99b7ae47f5a75,ducktruck,control,2127077.7,611a8cbde46ef77ccdf8b0c1,611abc2dcbd349bae6b453c2,Chrome,92,761,1453,1440,2560,q, -- select an option -- ,,Looking at two photos of unusual shapes & trying to detect if there was a change between the two objects. ,Determining if people could detect a change in objects when shown similar ones in rapid succession.,"Everything went well though I do want to mention there were a couple of times my dog started barking downstairs so I was a bit more distracted than I expected, though I do still feel fairly confident in most of my answers. ",2320196.7,concave_nofill_area2,different,shape4_concave_nofill_area2,,,1,1,concave_nofill
shape3,no_change5,6,57,different,6,2255.8,558980cdfdf99b7ae47f5a75,ducktruck,control,2127077.7,611a8cbde46ef77ccdf8b0c1,611abc2dcbd349bae6b453c2,Chrome,92,761,1453,1440,2560,q, -- select an option -- ,,Looking at two photos of unusual shapes & trying to detect if there was a change between the two objects. ,Determining if people could detect a change in objects when shown similar ones in rapid succession.,"Everything went well though I do want to mention there were a couple of times my dog started barking downstairs so I was a bit more distracted than I expected, though I do still feel fairly confident in most of my answers. ",2320196.7,no_change,same,shape3_no_change5,0.343132045,rl,0,1,none
shape2,no_change1,6,58,same,7,1727.8,558980cdfdf99b7ae47f5a75,ducktruck,control,2127077.7,611a8cbde46ef77ccdf8b0c1,611abc2dcbd349bae6b453c2,Chrome,92,761,1453,1440,2560,q, -- select an option -- ,,Looking at two photos of unusual shapes & trying to detect if there was a change between the two objects. ,Determining if people could detect a change in objects when shown similar ones in rapid succession.,"Everything went well though I do want to mention there were a couple of times my dog started barking downstairs so I was a bit more distracted than I expected, though I do still feel fairly confident in most of my answers. ",2320196.7,no_change,same,shape2_no_change1,0.230009402,rl,1,1,none
shape8,no_change1,6,59,same,9,1611.8,558980cdfdf99b7ae47f5a75,ducktruck,control,2127077.7,611a8cbde46ef77ccdf8b0c1,611abc2dcbd349bae6b453c2,Chrome,92,761,1453,1440,2560,q, -- select an option -- ,,Looking at two photos of unusual shapes & trying to detect if there was a change between the two objects. ,Determining if people could detect a change in objects when shown similar ones in rapid succession.,"Everything went well though I do want to mention there were a couple of times my dog started barking downstairs so I was a bit more distracted than I expected, though I do still feel fairly confident in most of my answers. ",2320196.7,no_change,same,shape8_no_change1,0.36455825,rl,1,1,none
catch_shape,no_change4,6,60,same,9,1707.5,558980cdfdf99b7ae47f5a75,ducktruck,control,2127077.7,611a8cbde46ef77ccdf8b0c1,611abc2dcbd349bae6b453c2,Chrome,92,761,1453,1440,2560,q, -- select an option -- ,,Looking at two photos of unusual shapes & trying to detect if there was a change between the two objects. ,Determining if people could detect a change in objects when shown similar ones in rapid succession.,"Everything went well though I do want to mention there were a couple of times my dog started barking downstairs so I was a bit more distracted than I expected, though I do still feel fairly confident in most of my answers. ",2320196.7,no_change,same,catch_shape_no_change4,0.463620285,rl,1,1,none
shape1,no_change2,6,61,same,9,10214.1,558980cdfdf99b7ae47f5a75,ducktruck,control,2127077.7,611a8cbde46ef77ccdf8b0c1,611abc2dcbd349bae6b453c2,Chrome,92,761,1453,1440,2560,q, -- select an option -- ,,Looking at two photos of unusual shapes & trying to detect if there was a change between the two objects. ,Determining if people could detect a change in objects when shown similar ones in rapid succession.,"Everything went well though I do want to mention there were a couple of times my dog started barking downstairs so I was a bit more distracted than I expected, though I do still feel fairly confident in most of my answers. ",2320196.7,no_change,same,shape1_no_change2,0.14964697300000002,lr,1,1,none
shape7,no_change3,6,62,different,6,3134.5,558980cdfdf99b7ae47f5a75,ducktruck,control,2127077.7,611a8cbde46ef77ccdf8b0c1,611abc2dcbd349bae6b453c2,Chrome,92,761,1453,1440,2560,q, -- select an option -- ,,Looking at two photos of unusual shapes & trying to detect if there was a change between the two objects. ,Determining if people could detect a change in objects when shown similar ones in rapid succession.,"Everything went well though I do want to mention there were a couple of times my dog started barking downstairs so I was a bit more distracted than I expected, though I do still feel fairly confident in most of my answers. ",2320196.7,no_change,same,shape7_no_change3,0.306079767,lr,0,1,none
shape3,concave_nofill_area1,7,63,different,9,2519.8,558980cdfdf99b7ae47f5a75,ducktruck,control,2127077.7,611a8cbde46ef77ccdf8b0c1,611abc2dcbd349bae6b453c2,Chrome,92,761,1453,1440,2560,q, -- select an option -- ,,Looking at two photos of unusual shapes & trying to detect if there was a change between the two objects. ,Determining if people could detect a change in objects when shown similar ones in rapid succession.,"Everything went well though I do want to mention there were a couple of times my dog started barking downstairs so I was a bit more distracted than I expected, though I do still feel fairly confident in most of my answers. ",2320196.7,concave_nofill_area1,different,shape3_concave_nofill_area1,,,1,1,concave_nofill
shape4,concave_nofill_area1,7,64,different,9,3110.0,558980cdfdf99b7ae47f5a75,ducktruck,control,2127077.7,611a8cbde46ef77ccdf8b0c1,611abc2dcbd349bae6b453c2,Chrome,92,761,1453,1440,2560,q, -- select an option -- ,,Looking at two photos of unusual shapes & trying to detect if there was a change between the two objects. ,Determining if people could detect a change in objects when shown similar ones in rapid succession.,"Everything went well though I do want to mention there were a couple of times my dog started barking downstairs so I was a bit more distracted than I expected, though I do still feel fairly confident in most of my answers. ",2320196.7,concave_nofill_area1,different,shape4_concave_nofill_area1,,,1,1,concave_nofill
shape2,no_change5,7,65,different,7,1910.8,558980cdfdf99b7ae47f5a75,ducktruck,control,2127077.7,611a8cbde46ef77ccdf8b0c1,611abc2dcbd349bae6b453c2,Chrome,92,761,1453,1440,2560,q, -- select an option -- ,,Looking at two photos of unusual shapes & trying to detect if there was a change between the two objects. ,Determining if people could detect a change in objects when shown similar ones in rapid succession.,"Everything went well though I do want to mention there were a couple of times my dog started barking downstairs so I was a bit more distracted than I expected, though I do still feel fairly confident in most of my answers. ",2320196.7,no_change,same,shape2_no_change5,0.871216435,lr,0,1,none
shape6,concave_nofill_area1,7,66,different,9,1782.7,558980cdfdf99b7ae47f5a75,ducktruck,control,2127077.7,611a8cbde46ef77ccdf8b0c1,611abc2dcbd349bae6b453c2,Chrome,92,761,1453,1440,2560,q, -- select an option -- ,,Looking at two photos of unusual shapes & trying to detect if there was a change between the two objects. ,Determining if people could detect a change in objects when shown similar ones in rapid succession.,"Everything went well though I do want to mention there were a couple of times my dog started barking downstairs so I was a bit more distracted than I expected, though I do still feel fairly confident in most of my answers. ",2320196.7,concave_nofill_area1,different,shape6_concave_nofill_area1,,,1,1,concave_nofill
shape1,concave_area2,7,67,different,9,3352.7,558980cdfdf99b7ae47f5a75,ducktruck,control,2127077.7,611a8cbde46ef77ccdf8b0c1,611abc2dcbd349bae6b453c2,Chrome,92,761,1453,1440,2560,q, -- select an option -- ,,Looking at two photos of unusual shapes & trying to detect if there was a change between the two objects. ,Determining if people could detect a change in objects when shown similar ones in rapid succession.,"Everything went well though I do want to mention there were a couple of times my dog started barking downstairs so I was a bit more distracted than I expected, though I do still feel fairly confident in most of my answers. ",2320196.7,concave_area2,different,shape1_concave_area2,,,1,1,concave
shape8,convex_area1,7,68,different,9,2156.2,558980cdfdf99b7ae47f5a75,ducktruck,control,2127077.7,611a8cbde46ef77ccdf8b0c1,611abc2dcbd349bae6b453c2,Chrome,92,761,1453,1440,2560,q, -- select an option -- ,,Looking at two photos of unusual shapes & trying to detect if there was a change between the two objects. ,Determining if people could detect a change in objects when shown similar ones in rapid succession.,"Everything went well though I do want to mention there were a couple of times my dog started barking downstairs so I was a bit more distracted than I expected, though I do still feel fairly confident in most of my answers. ",2320196.7,convex_area1,different,shape8_convex_area1,,,1,1,convex
shape5,no_change2,7,69,same,9,3932.9,558980cdfdf99b7ae47f5a75,ducktruck,control,2127077.7,611a8cbde46ef77ccdf8b0c1,611abc2dcbd349bae6b453c2,Chrome,92,761,1453,1440,2560,q, -- select an option -- ,,Looking at two photos of unusual shapes & trying to detect if there was a change between the two objects. ,Determining if people could detect a change in objects when shown similar ones in rapid succession.,"Everything went well though I do want to mention there were a couple of times my dog started barking downstairs so I was a bit more distracted than I expected, though I do still feel fairly confident in most of my answers. ",2320196.7,no_change,same,shape5_no_change2,0.185057363,lr,1,1,none
shape7,no_change2,7,70,same,9,1622.8,558980cdfdf99b7ae47f5a75,ducktruck,control,2127077.7,611a8cbde46ef77ccdf8b0c1,611abc2dcbd349bae6b453c2,Chrome,92,761,1453,1440,2560,q, -- select an option -- ,,Looking at two photos of unusual shapes & trying to detect if there was a change between the two objects. ,Determining if people could detect a change in objects when shown similar ones in rapid succession.,"Everything went well though I do want to mention there were a couple of times my dog started barking downstairs so I was a bit more distracted than I expected, though I do still feel fairly confident in most of my answers. ",2320196.7,no_change,same,shape7_no_change2,0.548394241,lr,1,1,none
catch_shape,no_change3,7,71,same,9,2329.4,558980cdfdf99b7ae47f5a75,ducktruck,control,2127077.7,611a8cbde46ef77ccdf8b0c1,611abc2dcbd349bae6b453c2,Chrome,92,761,1453,1440,2560,q, -- select an option -- ,,Looking at two photos of unusual shapes & trying to detect if there was a change between the two objects. ,Determining if people could detect a change in objects when shown similar ones in rapid succession.,"Everything went well though I do want to mention there were a couple of times my dog started barking downstairs so I was a bit more distracted than I expected, though I do still feel fairly confident in most of my answers. ",2320196.7,no_change,same,catch_shape_no_change3,0.803907334,lr,1,1,none
shape1,concave_nofill_area2,8,72,same,7,45251.1,558980cdfdf99b7ae47f5a75,ducktruck,control,2127077.7,611a8cbde46ef77ccdf8b0c1,611abc2dcbd349bae6b453c2,Chrome,92,761,1453,1440,2560,q, -- select an option -- ,,Looking at two photos of unusual shapes & trying to detect if there was a change between the two objects. ,Determining if people could detect a change in objects when shown similar ones in rapid succession.,"Everything went well though I do want to mention there were a couple of times my dog started barking downstairs so I was a bit more distracted than I expected, though I do still feel fairly confident in most of my answers. ",2320196.7,concave_nofill_area2,different,shape1_concave_nofill_area2,,,0,1,concave_nofill
shape8,concave_nofill_area2,8,73,different,9,1525.6,558980cdfdf99b7ae47f5a75,ducktruck,control,2127077.7,611a8cbde46ef77ccdf8b0c1,611abc2dcbd349bae6b453c2,Chrome,92,761,1453,1440,2560,q, -- select an option -- ,,Looking at two photos of unusual shapes & trying to detect if there was a change between the two objects. ,Determining if people could detect a change in objects when shown similar ones in rapid succession.,"Everything went well though I do want to mention there were a couple of times my dog started barking downstairs so I was a bit more distracted than I expected, though I do still feel fairly confident in most of my answers. ",2320196.7,concave_nofill_area2,different,shape8_concave_nofill_area2,,,1,1,concave_nofill
shape6,no_change3,8,74,same,9,802.9,558980cdfdf99b7ae47f5a75,ducktruck,control,2127077.7,611a8cbde46ef77ccdf8b0c1,611abc2dcbd349bae6b453c2,Chrome,92,761,1453,1440,2560,q, -- select an option -- ,,Looking at two photos of unusual shapes & trying to detect if there was a change between the two objects. ,Determining if people could detect a change in objects when shown similar ones in rapid succession.,"Everything went well though I do want to mention there were a couple of times my dog started barking downstairs so I was a bit more distracted than I expected, though I do still feel fairly confident in most of my answers. ",2320196.7,no_change,same,shape6_no_change3,0.472023106,rl,1,1,none
shape7,no_change5,8,75,same,9,869.3,558980cdfdf99b7ae47f5a75,ducktruck,control,2127077.7,611a8cbde46ef77ccdf8b0c1,611abc2dcbd349bae6b453c2,Chrome,92,761,1453,1440,2560,q, -- select an option -- ,,Looking at two photos of unusual shapes & trying to detect if there was a change between the two objects. ,Determining if people could detect a change in objects when shown similar ones in rapid succession.,"Everything went well though I do want to mention there were a couple of times my dog started barking downstairs so I was a bit more distracted than I expected, though I do still feel fairly confident in most of my answers. ",2320196.7,no_change,same,shape7_no_change5,0.8932681370000001,rl,1,1,none
shape2,concave_nofill_area1,8,76,different,9,1430.0,558980cdfdf99b7ae47f5a75,ducktruck,control,2127077.7,611a8cbde46ef77ccdf8b0c1,611abc2dcbd349bae6b453c2,Chrome,92,761,1453,1440,2560,q, -- select an option -- ,,Looking at two photos of unusual shapes & trying to detect if there was a change between the two objects. ,Determining if people could detect a change in objects when shown similar ones in rapid succession.,"Everything went well though I do want to mention there were a couple of times my dog started barking downstairs so I was a bit more distracted than I expected, though I do still feel fairly confident in most of my answers. ",2320196.7,concave_nofill_area1,different,shape2_concave_nofill_area1,,,1,1,concave_nofill
shape3,concave_nofill_area2,8,77,different,9,1648.5,558980cdfdf99b7ae47f5a75,ducktruck,control,2127077.7,611a8cbde46ef77ccdf8b0c1,611abc2dcbd349bae6b453c2,Chrome,92,761,1453,1440,2560,q, -- select an option -- ,,Looking at two photos of unusual shapes & trying to detect if there was a change between the two objects. ,Determining if people could detect a change in objects when shown similar ones in rapid succession.,"Everything went well though I do want to mention there were a couple of times my dog started barking downstairs so I was a bit more distracted than I expected, though I do still feel fairly confident in most of my answers. ",2320196.7,concave_nofill_area2,different,shape3_concave_nofill_area2,,,1,1,concave_nofill
catch_shape,change4,8,78,same,1,37033.6,558980cdfdf99b7ae47f5a75,ducktruck,control,2127077.7,611a8cbde46ef77ccdf8b0c1,611abc2dcbd349bae6b453c2,Chrome,92,761,1453,1440,2560,q, -- select an option -- ,,Looking at two photos of unusual shapes & trying to detect if there was a change between the two objects. ,Determining if people could detect a change in objects when shown similar ones in rapid succession.,"Everything went well though I do want to mention there were a couple of times my dog started barking downstairs so I was a bit more distracted than I expected, though I do still feel fairly confident in most of my answers. ",2320196.7,change4,different,catch_shape_change4,0.056940257,rl,0,1,none
shape5,concave_nofill_area2,8,79,different,9,2102.9,558980cdfdf99b7ae47f5a75,ducktruck,control,2127077.7,611a8cbde46ef77ccdf8b0c1,611abc2dcbd349bae6b453c2,Chrome,92,761,1453,1440,2560,q, -- select an option -- ,,Looking at two photos of unusual shapes & trying to detect if there was a change between the two objects. ,Determining if people could detect a change in objects when shown similar ones in rapid succession.,"Everything went well though I do want to mention there were a couple of times my dog started barking downstairs so I was a bit more distracted than I expected, though I do still feel fairly confident in most of my answers. ",2320196.7,concave_nofill_area2,different,shape5_concave_nofill_area2,,,1,1,concave_nofill
shape4,concave_area2,8,80,different,9,2045.2,558980cdfdf99b7ae47f5a75,ducktruck,control,2127077.7,611a8cbde46ef77ccdf8b0c1,611abc2dcbd349bae6b453c2,Chrome,92,761,1453,1440,2560,q, -- select an option -- ,,Looking at two photos of unusual shapes & trying to detect if there was a change between the two objects. ,Determining if people could detect a change in objects when shown similar ones in rapid succession.,"Everything went well though I do want to mention there were a couple of times my dog started barking downstairs so I was a bit more distracted than I expected, though I do still feel fairly confident in most of my answers. ",2320196.7,concave_area2,different,shape4_concave_area2,,,1,1,concave
shape4,no_change5,9,81,same,9,2219.3,558980cdfdf99b7ae47f5a75,ducktruck,control,2127077.7,611a8cbde46ef77ccdf8b0c1,611abc2dcbd349bae6b453c2,Chrome,92,761,1453,1440,2560,q, -- select an option -- ,,Looking at two photos of unusual shapes & trying to detect if there was a change between the two objects. ,Determining if people could detect a change in objects when shown similar ones in rapid succession.,"Everything went well though I do want to mention there were a couple of times my dog started barking downstairs so I was a bit more distracted than I expected, though I do still feel fairly confident in most of my answers. ",2320196.7,no_change,same,shape4_no_change5,0.335320258,lr,1,1,none
shape3,concave_area1,9,82,different,8,1850.9,558980cdfdf99b7ae47f5a75,ducktruck,control,2127077.7,611a8cbde46ef77ccdf8b0c1,611abc2dcbd349bae6b453c2,Chrome,92,761,1453,1440,2560,q, -- select an option -- ,,Looking at two photos of unusual shapes & trying to detect if there was a change between the two objects. ,Determining if people could detect a change in objects when shown similar ones in rapid succession.,"Everything went well though I do want to mention there were a couple of times my dog started barking downstairs so I was a bit more distracted than I expected, though I do still feel fairly confident in most of my answers. ",2320196.7,concave_area1,different,shape3_concave_area1,,,1,1,concave
shape5,convex_area1,9,83,different,9,1591.5,558980cdfdf99b7ae47f5a75,ducktruck,control,2127077.7,611a8cbde46ef77ccdf8b0c1,611abc2dcbd349bae6b453c2,Chrome,92,761,1453,1440,2560,q, -- select an option -- ,,Looking at two photos of unusual shapes & trying to detect if there was a change between the two objects. ,Determining if people could detect a change in objects when shown similar ones in rapid succession.,"Everything went well though I do want to mention there were a couple of times my dog started barking downstairs so I was a bit more distracted than I expected, though I do still feel fairly confident in most of my answers. ",2320196.7,convex_area1,different,shape5_convex_area1,,,1,1,convex
shape1,no_change3,9,84,same,7,1806.1,558980cdfdf99b7ae47f5a75,ducktruck,control,2127077.7,611a8cbde46ef77ccdf8b0c1,611abc2dcbd349bae6b453c2,Chrome,92,761,1453,1440,2560,q, -- select an option -- ,,Looking at two photos of unusual shapes & trying to detect if there was a change between the two objects. ,Determining if people could detect a change in objects when shown similar ones in rapid succession.,"Everything went well though I do want to mention there were a couple of times my dog started barking downstairs so I was a bit more distracted than I expected, though I do still feel fairly confident in most of my answers. ",2320196.7,no_change,same,shape1_no_change3,0.39750744600000004,lr,1,1,none
shape6,convex_area2,9,85,different,9,2361.3,558980cdfdf99b7ae47f5a75,ducktruck,control,2127077.7,611a8cbde46ef77ccdf8b0c1,611abc2dcbd349bae6b453c2,Chrome,92,761,1453,1440,2560,q, -- select an option -- ,,Looking at two photos of unusual shapes & trying to detect if there was a change between the two objects. ,Determining if people could detect a change in objects when shown similar ones in rapid succession.,"Everything went well though I do want to mention there were a couple of times my dog started barking downstairs so I was a bit more distracted than I expected, though I do still feel fairly confident in most of my answers. ",2320196.7,convex_area2,different,shape6_convex_area2,,,1,1,convex
shape8,convex_area2,9,86,different,9,2097.3,558980cdfdf99b7ae47f5a75,ducktruck,control,2127077.7,611a8cbde46ef77ccdf8b0c1,611abc2dcbd349bae6b453c2,Chrome,92,761,1453,1440,2560,q, -- select an option -- ,,Looking at two photos of unusual shapes & trying to detect if there was a change between the two objects. ,Determining if people could detect a change in objects when shown similar ones in rapid succession.,"Everything went well though I do want to mention there were a couple of times my dog started barking downstairs so I was a bit more distracted than I expected, though I do still feel fairly confident in most of my answers. ",2320196.7,convex_area2,different,shape8_convex_area2,,,1,1,convex
shape7,no_change1,9,87,different,6,4500.1,558980cdfdf99b7ae47f5a75,ducktruck,control,2127077.7,611a8cbde46ef77ccdf8b0c1,611abc2dcbd349bae6b453c2,Chrome,92,761,1453,1440,2560,q, -- select an option -- ,,Looking at two photos of unusual shapes & trying to detect if there was a change between the two objects. ,Determining if people could detect a change in objects when shown similar ones in rapid succession.,"Everything went well though I do want to mention there were a couple of times my dog started barking downstairs so I was a bit more distracted than I expected, though I do still feel fairly confident in most of my answers. ",2320196.7,no_change,same,shape7_no_change1,0.787509048,lr,0,1,none
catch_shape,change6,9,88,different,9,3054.8,558980cdfdf99b7ae47f5a75,ducktruck,control,2127077.7,611a8cbde46ef77ccdf8b0c1,611abc2dcbd349bae6b453c2,Chrome,92,761,1453,1440,2560,q, -- select an option -- ,,Looking at two photos of unusual shapes & trying to detect if there was a change between the two objects. ,Determining if people could detect a change in objects when shown similar ones in rapid succession.,"Everything went well though I do want to mention there were a couple of times my dog started barking downstairs so I was a bit more distracted than I expected, though I do still feel fairly confident in most of my answers. ",2320196.7,change6,different,catch_shape_change6,0.343027212,rl,1,1,none
shape2,no_change4,9,89,same,8,2416.2,558980cdfdf99b7ae47f5a75,ducktruck,control,2127077.7,611a8cbde46ef77ccdf8b0c1,611abc2dcbd349bae6b453c2,Chrome,92,761,1453,1440,2560,q, -- select an option -- ,,Looking at two photos of unusual shapes & trying to detect if there was a change between the two objects. ,Determining if people could detect a change in objects when shown similar ones in rapid succession.,"Everything went well though I do want to mention there were a couple of times my dog started barking downstairs so I was a bit more distracted than I expected, though I do still feel fairly confident in most of my answers. ",2320196.7,no_change,same,shape2_no_change4,0.002296296,lr,1,1,none
shape5,no_change3,10,90,same,9,2261.8,558980cdfdf99b7ae47f5a75,ducktruck,control,2127077.7,611a8cbde46ef77ccdf8b0c1,611abc2dcbd349bae6b453c2,Chrome,92,761,1453,1440,2560,q, -- select an option -- ,,Looking at two photos of unusual shapes & trying to detect if there was a change between the two objects. ,Determining if people could detect a change in objects when shown similar ones in rapid succession.,"Everything went well though I do want to mention there were a couple of times my dog started barking downstairs so I was a bit more distracted than I expected, though I do still feel fairly confident in most of my answers. ",2320196.7,no_change,same,shape5_no_change3,0.9424178609999999,lr,1,1,none
shape4,no_change6,10,91,different,6,2309.5,558980cdfdf99b7ae47f5a75,ducktruck,control,2127077.7,611a8cbde46ef77ccdf8b0c1,611abc2dcbd349bae6b453c2,Chrome,92,761,1453,1440,2560,q, -- select an option -- ,,Looking at two photos of unusual shapes & trying to detect if there was a change between the two objects. ,Determining if people could detect a change in objects when shown similar ones in rapid succession.,"Everything went well though I do want to mention there were a couple of times my dog started barking downstairs so I was a bit more distracted than I expected, though I do still feel fairly confident in most of my answers. ",2320196.7,no_change,same,shape4_no_change6,0.17584748100000003,lr,0,1,none
catch_shape,no_change6,10,92,same,9,2973.6,558980cdfdf99b7ae47f5a75,ducktruck,control,2127077.7,611a8cbde46ef77ccdf8b0c1,611abc2dcbd349bae6b453c2,Chrome,92,761,1453,1440,2560,q, -- select an option -- ,,Looking at two photos of unusual shapes & trying to detect if there was a change between the two objects. ,Determining if people could detect a change in objects when shown similar ones in rapid succession.,"Everything went well though I do want to mention there were a couple of times my dog started barking downstairs so I was a bit more distracted than I expected, though I do still feel fairly confident in most of my answers. ",2320196.7,no_change,same,catch_shape_no_change6,0.889778715,rl,1,1,none
shape6,concave_area1,10,93,different,9,1462.8,558980cdfdf99b7ae47f5a75,ducktruck,control,2127077.7,611a8cbde46ef77ccdf8b0c1,611abc2dcbd349bae6b453c2,Chrome,92,761,1453,1440,2560,q, -- select an option -- ,,Looking at two photos of unusual shapes & trying to detect if there was a change between the two objects. ,Determining if people could detect a change in objects when shown similar ones in rapid succession.,"Everything went well though I do want to mention there were a couple of times my dog started barking downstairs so I was a bit more distracted than I expected, though I do still feel fairly confident in most of my answers. ",2320196.7,concave_area1,different,shape6_concave_area1,,,1,1,concave
shape3,no_change4,10,94,same,7,1538.5,558980cdfdf99b7ae47f5a75,ducktruck,control,2127077.7,611a8cbde46ef77ccdf8b0c1,611abc2dcbd349bae6b453c2,Chrome,92,761,1453,1440,2560,q, -- select an option -- ,,Looking at two photos of unusual shapes & trying to detect if there was a change between the two objects. ,Determining if people could detect a change in objects when shown similar ones in rapid succession.,"Everything went well though I do want to mention there were a couple of times my dog started barking downstairs so I was a bit more distracted than I expected, though I do still feel fairly confident in most of my answers. ",2320196.7,no_change,same,shape3_no_change4,0.391097566,rl,1,1,none
shape8,no_change6,10,95,same,9,1230.6,558980cdfdf99b7ae47f5a75,ducktruck,control,2127077.7,611a8cbde46ef77ccdf8b0c1,611abc2dcbd349bae6b453c2,Chrome,92,761,1453,1440,2560,q, -- select an option -- ,,Looking at two photos of unusual shapes & trying to detect if there was a change between the two objects. ,Determining if people could detect a change in objects when shown similar ones in rapid succession.,"Everything went well though I do want to mention there were a couple of times my dog started barking downstairs so I was a bit more distracted than I expected, though I do still feel fairly confident in most of my answers. ",2320196.7,no_change,same,shape8_no_change6,0.33963891,lr,1,1,none
shape7,concave_nofill_area2,10,96,different,9,2830.2,558980cdfdf99b7ae47f5a75,ducktruck,control,2127077.7,611a8cbde46ef77ccdf8b0c1,611abc2dcbd349bae6b453c2,Chrome,92,761,1453,1440,2560,q, -- select an option -- ,,Looking at two photos of unusual shapes & trying to detect if there was a change between the two objects. ,Determining if people could detect a change in objects when shown similar ones in rapid succession.,"Everything went well though I do want to mention there were a couple of times my dog started barking downstairs so I was a bit more distracted than I expected, though I do still feel fairly confident in most of my answers. ",2320196.7,concave_nofill_area2,different,shape7_concave_nofill_area2,,,1,1,concave_nofill
shape2,concave_area1,10,97,different,9,2862.5,558980cdfdf99b7ae47f5a75,ducktruck,control,2127077.7,611a8cbde46ef77ccdf8b0c1,611abc2dcbd349bae6b453c2,Chrome,92,761,1453,1440,2560,q, -- select an option -- ,,Looking at two photos of unusual shapes & trying to detect if there was a change between the two objects. ,Determining if people could detect a change in objects when shown similar ones in rapid succession.,"Everything went well though I do want to mention there were a couple of times my dog started barking downstairs so I was a bit more distracted than I expected, though I do still feel fairly confident in most of my answers. ",2320196.7,concave_area1,different,shape2_concave_area1,,,1,1,concave
shape1,concave_nofill_area1,10,98,different,9,2518.1,558980cdfdf99b7ae47f5a75,ducktruck,control,2127077.7,611a8cbde46ef77ccdf8b0c1,611abc2dcbd349bae6b453c2,Chrome,92,761,1453,1440,2560,q, -- select an option -- ,,Looking at two photos of unusual shapes & trying to detect if there was a change between the two objects. ,Determining if people could detect a change in objects when shown similar ones in rapid succession.,"Everything went well though I do want to mention there were a couple of times my dog started barking downstairs so I was a bit more distracted than I expected, though I do still feel fairly confident in most of my answers. ",2320196.7,concave_nofill_area1,different,shape1_concave_nofill_area1,,,1,1,concave_nofill
shape7,concave_area1,11,99,different,9,2841.1,558980cdfdf99b7ae47f5a75,ducktruck,control,2127077.7,611a8cbde46ef77ccdf8b0c1,611abc2dcbd349bae6b453c2,Chrome,92,761,1453,1440,2560,q, -- select an option -- ,,Looking at two photos of unusual shapes & trying to detect if there was a change between the two objects. ,Determining if people could detect a change in objects when shown similar ones in rapid succession.,"Everything went well though I do want to mention there were a couple of times my dog started barking downstairs so I was a bit more distracted than I expected, though I do still feel fairly confident in most of my answers. ",2320196.7,concave_area1,different,shape7_concave_area1,,,1,1,concave
shape6,no_change5,11,100,same,9,1634.3,558980cdfdf99b7ae47f5a75,ducktruck,control,2127077.7,611a8cbde46ef77ccdf8b0c1,611abc2dcbd349bae6b453c2,Chrome,92,761,1453,1440,2560,q, -- select an option -- ,,Looking at two photos of unusual shapes & trying to detect if there was a change between the two objects. ,Determining if people could detect a change in objects when shown similar ones in rapid succession.,"Everything went well though I do want to mention there were a couple of times my dog started barking downstairs so I was a bit more distracted than I expected, though I do still feel fairly confident in most of my answers. ",2320196.7,no_change,same,shape6_no_change5,0.109930511,lr,1,1,none
shape4,no_change2,11,101,same,6,5026.9,558980cdfdf99b7ae47f5a75,ducktruck,control,2127077.7,611a8cbde46ef77ccdf8b0c1,611abc2dcbd349bae6b453c2,Chrome,92,761,1453,1440,2560,q, -- select an option -- ,,Looking at two photos of unusual shapes & trying to detect if there was a change between the two objects. ,Determining if people could detect a change in objects when shown similar ones in rapid succession.,"Everything went well though I do want to mention there were a couple of times my dog started barking downstairs so I was a bit more distracted than I expected, though I do still feel fairly confident in most of my answers. ",2320196.7,no_change,same,shape4_no_change2,0.546234004,rl,1,1,none
shape8,no_change2,11,102,same,9,1470.3,558980cdfdf99b7ae47f5a75,ducktruck,control,2127077.7,611a8cbde46ef77ccdf8b0c1,611abc2dcbd349bae6b453c2,Chrome,92,761,1453,1440,2560,q, -- select an option -- ,,Looking at two photos of unusual shapes & trying to detect if there was a change between the two objects. ,Determining if people could detect a change in objects when shown similar ones in rapid succession.,"Everything went well though I do want to mention there were a couple of times my dog started barking downstairs so I was a bit more distracted than I expected, though I do still feel fairly confident in most of my answers. ",2320196.7,no_change,same,shape8_no_change2,0.967180073,rl,1,1,none
shape3,concave_area2,11,103,different,9,1739.4,558980cdfdf99b7ae47f5a75,ducktruck,control,2127077.7,611a8cbde46ef77ccdf8b0c1,611abc2dcbd349bae6b453c2,Chrome,92,761,1453,1440,2560,q, -- select an option -- ,,Looking at two photos of unusual shapes & trying to detect if there was a change between the two objects. ,Determining if people could detect a change in objects when shown similar ones in rapid succession.,"Everything went well though I do want to mention there were a couple of times my dog started barking downstairs so I was a bit more distracted than I expected, though I do still feel fairly confident in most of my answers. ",2320196.7,concave_area2,different,shape3_concave_area2,,,1,1,concave
catch_shape,change5,11,104,different,9,2014.0,558980cdfdf99b7ae47f5a75,ducktruck,control,2127077.7,611a8cbde46ef77ccdf8b0c1,611abc2dcbd349bae6b453c2,Chrome,92,761,1453,1440,2560,q, -- select an option -- ,,Looking at two photos of unusual shapes & trying to detect if there was a change between the two objects. ,Determining if people could detect a change in objects when shown similar ones in rapid succession.,"Everything went well though I do want to mention there were a couple of times my dog started barking downstairs so I was a bit more distracted than I expected, though I do still feel fairly confident in most of my answers. ",2320196.7,change5,different,catch_shape_change5,0.224357715,rl,1,1,none
shape2,concave_area2,11,105,different,9,1966.1,558980cdfdf99b7ae47f5a75,ducktruck,control,2127077.7,611a8cbde46ef77ccdf8b0c1,611abc2dcbd349bae6b453c2,Chrome,92,761,1453,1440,2560,q, -- select an option -- ,,Looking at two photos of unusual shapes & trying to detect if there was a change between the two objects. ,Determining if people could detect a change in objects when shown similar ones in rapid succession.,"Everything went well though I do want to mention there were a couple of times my dog started barking downstairs so I was a bit more distracted than I expected, though I do still feel fairly confident in most of my answers. ",2320196.7,concave_area2,different,shape2_concave_area2,,,1,1,concave
shape1,convex_area1,11,106,different,9,2310.8,558980cdfdf99b7ae47f5a75,ducktruck,control,2127077.7,611a8cbde46ef77ccdf8b0c1,611abc2dcbd349bae6b453c2,Chrome,92,761,1453,1440,2560,q, -- select an option -- ,,Looking at two photos of unusual shapes & trying to detect if there was a change between the two objects. ,Determining if people could detect a change in objects when shown similar ones in rapid succession.,"Everything went well though I do want to mention there were a couple of times my dog started barking downstairs so I was a bit more distracted than I expected, though I do still feel fairly confident in most of my answers. ",2320196.7,convex_area1,different,shape1_convex_area1,,,1,1,convex
shape5,convex_area2,11,107,different,9,2700.2,558980cdfdf99b7ae47f5a75,ducktruck,control,2127077.7,611a8cbde46ef77ccdf8b0c1,611abc2dcbd349bae6b453c2,Chrome,92,761,1453,1440,2560,q, -- select an option -- ,,Looking at two photos of unusual shapes & trying to detect if there was a change between the two objects. ,Determining if people could detect a change in objects when shown similar ones in rapid succession.,"Everything went well though I do want to mention there were a couple of times my dog started barking downstairs so I was a bit more distracted than I expected, though I do still feel fairly confident in most of my answers. ",2320196.7,convex_area2,different,shape5_convex_area2,,,1,1,convex
shape7,no_change1,0,0,same,9,3688.0,572f676f3c27e7000d0b3f9b,ducktruck,control,1367601.6,611a8cbde46ef77ccdf8b0c1,611a9f42a0a7638c0facf99f,Chrome,92,610,1275,727,1291,q, -- select an option -- ,,I was tasked with determining if two objects that briefly appeared on the screen were identical or if there were any differences between them. I was instructed to press 'Q' if the objects were the same and 'P' if I detected any differences.,"I think the purpose of the study was to determine how people process differences between options and make split second decisions. I also believe the study may have been studying if ""correct"" decisions that you are confident in affect how you make future decisions.",Everything worked fine.,1398258.4,no_change,same,shape7_no_change1,0.787509048,lr,1,1,none
shape8,concave_nofill_area2,0,1,same,6,2591.7,572f676f3c27e7000d0b3f9b,ducktruck,control,1367601.6,611a8cbde46ef77ccdf8b0c1,611a9f42a0a7638c0facf99f,Chrome,92,610,1275,727,1291,q, -- select an option -- ,,I was tasked with determining if two objects that briefly appeared on the screen were identical or if there were any differences between them. I was instructed to press 'Q' if the objects were the same and 'P' if I detected any differences.,"I think the purpose of the study was to determine how people process differences between options and make split second decisions. I also believe the study may have been studying if ""correct"" decisions that you are confident in affect how you make future decisions.",Everything worked fine.,1398258.4,concave_nofill_area2,different,shape8_concave_nofill_area2,,,0,1,concave_nofill
shape1,concave_area2,0,2,same,5,2202.9,572f676f3c27e7000d0b3f9b,ducktruck,control,1367601.6,611a8cbde46ef77ccdf8b0c1,611a9f42a0a7638c0facf99f,Chrome,92,610,1275,727,1291,q, -- select an option -- ,,I was tasked with determining if two objects that briefly appeared on the screen were identical or if there were any differences between them. I was instructed to press 'Q' if the objects were the same and 'P' if I detected any differences.,"I think the purpose of the study was to determine how people process differences between options and make split second decisions. I also believe the study may have been studying if ""correct"" decisions that you are confident in affect how you make future decisions.",Everything worked fine.,1398258.4,concave_area2,different,shape1_concave_area2,,,0,1,concave
shape6,no_change4,0,3,same,7,1914.5,572f676f3c27e7000d0b3f9b,ducktruck,control,1367601.6,611a8cbde46ef77ccdf8b0c1,611a9f42a0a7638c0facf99f,Chrome,92,610,1275,727,1291,q, -- select an option -- ,,I was tasked with determining if two objects that briefly appeared on the screen were identical or if there were any differences between them. I was instructed to press 'Q' if the objects were the same and 'P' if I detected any differences.,"I think the purpose of the study was to determine how people process differences between options and make split second decisions. I also believe the study may have been studying if ""correct"" decisions that you are confident in affect how you make future decisions.",Everything worked fine.,1398258.4,no_change,same,shape6_no_change4,0.9643281770000001,lr,1,1,none
shape2,concave_area1,0,4,different,7,1963.5,572f676f3c27e7000d0b3f9b,ducktruck,control,1367601.6,611a8cbde46ef77ccdf8b0c1,611a9f42a0a7638c0facf99f,Chrome,92,610,1275,727,1291,q, -- select an option -- ,,I was tasked with determining if two objects that briefly appeared on the screen were identical or if there were any differences between them. I was instructed to press 'Q' if the objects were the same and 'P' if I detected any differences.,"I think the purpose of the study was to determine how people process differences between options and make split second decisions. I also believe the study may have been studying if ""correct"" decisions that you are confident in affect how you make future decisions.",Everything worked fine.,1398258.4,concave_area1,different,shape2_concave_area1,,,1,1,concave
shape3,no_change6,0,5,same,6,1967.3,572f676f3c27e7000d0b3f9b,ducktruck,control,1367601.6,611a8cbde46ef77ccdf8b0c1,611a9f42a0a7638c0facf99f,Chrome,92,610,1275,727,1291,q, -- select an option -- ,,I was tasked with determining if two objects that briefly appeared on the screen were identical or if there were any differences between them. I was instructed to press 'Q' if the objects were the same and 'P' if I detected any differences.,"I think the purpose of the study was to determine how people process differences between options and make split second decisions. I also believe the study may have been studying if ""correct"" decisions that you are confident in affect how you make future decisions.",Everything worked fine.,1398258.4,no_change,same,shape3_no_change6,0.20130798800000002,rl,1,1,none
catch_shape,no_change1,0,6,same,9,2020.0,572f676f3c27e7000d0b3f9b,ducktruck,control,1367601.6,611a8cbde46ef77ccdf8b0c1,611a9f42a0a7638c0facf99f,Chrome,92,610,1275,727,1291,q, -- select an option -- ,,I was tasked with determining if two objects that briefly appeared on the screen were identical or if there were any differences between them. I was instructed to press 'Q' if the objects were the same and 'P' if I detected any differences.,"I think the purpose of the study was to determine how people process differences between options and make split second decisions. I also believe the study may have been studying if ""correct"" decisions that you are confident in affect how you make future decisions.",Everything worked fine.,1398258.4,no_change,same,catch_shape_no_change1,0.9534566409999999,lr,1,1,none
shape4,convex_area2,0,7,different,4,2030.4,572f676f3c27e7000d0b3f9b,ducktruck,control,1367601.6,611a8cbde46ef77ccdf8b0c1,611a9f42a0a7638c0facf99f,Chrome,92,610,1275,727,1291,q, -- select an option -- ,,I was tasked with determining if two objects that briefly appeared on the screen were identical or if there were any differences between them. I was instructed to press 'Q' if the objects were the same and 'P' if I detected any differences.,"I think the purpose of the study was to determine how people process differences between options and make split second decisions. I also believe the study may have been studying if ""correct"" decisions that you are confident in affect how you make future decisions.",Everything worked fine.,1398258.4,convex_area2,different,shape4_convex_area2,,,1,1,convex
shape5,no_change1,0,8,same,7,3485.8,572f676f3c27e7000d0b3f9b,ducktruck,control,1367601.6,611a8cbde46ef77ccdf8b0c1,611a9f42a0a7638c0facf99f,Chrome,92,610,1275,727,1291,q, -- select an option -- ,,I was tasked with determining if two objects that briefly appeared on the screen were identical or if there were any differences between them. I was instructed to press 'Q' if the objects were the same and 'P' if I detected any differences.,"I think the purpose of the study was to determine how people process differences between options and make split second decisions. I also believe the study may have been studying if ""correct"" decisions that you are confident in affect how you make future decisions.",Everything worked fine.,1398258.4,no_change,same,shape5_no_change1,0.8813361009999999,lr,1,1,none
shape5,no_change2,1,9,different,4,2826.6,572f676f3c27e7000d0b3f9b,ducktruck,control,1367601.6,611a8cbde46ef77ccdf8b0c1,611a9f42a0a7638c0facf99f,Chrome,92,610,1275,727,1291,q, -- select an option -- ,,I was tasked with determining if two objects that briefly appeared on the screen were identical or if there were any differences between them. I was instructed to press 'Q' if the objects were the same and 'P' if I detected any differences.,"I think the purpose of the study was to determine how people process differences between options and make split second decisions. I also believe the study may have been studying if ""correct"" decisions that you are confident in affect how you make future decisions.",Everything worked fine.,1398258.4,no_change,same,shape5_no_change2,0.185057363,lr,0,1,none
shape2,concave_area2,1,10,different,9,3737.8,572f676f3c27e7000d0b3f9b,ducktruck,control,1367601.6,611a8cbde46ef77ccdf8b0c1,611a9f42a0a7638c0facf99f,Chrome,92,610,1275,727,1291,q, -- select an option -- ,,I was tasked with determining if two objects that briefly appeared on the screen were identical or if there were any differences between them. I was instructed to press 'Q' if the objects were the same and 'P' if I detected any differences.,"I think the purpose of the study was to determine how people process differences between options and make split second decisions. I also believe the study may have been studying if ""correct"" decisions that you are confident in affect how you make future decisions.",Everything worked fine.,1398258.4,concave_area2,different,shape2_concave_area2,,,1,1,concave
shape6,no_change5,1,11,same,7,2091.2,572f676f3c27e7000d0b3f9b,ducktruck,control,1367601.6,611a8cbde46ef77ccdf8b0c1,611a9f42a0a7638c0facf99f,Chrome,92,610,1275,727,1291,q, -- select an option -- ,,I was tasked with determining if two objects that briefly appeared on the screen were identical or if there were any differences between them. I was instructed to press 'Q' if the objects were the same and 'P' if I detected any differences.,"I think the purpose of the study was to determine how people process differences between options and make split second decisions. I also believe the study may have been studying if ""correct"" decisions that you are confident in affect how you make future decisions.",Everything worked fine.,1398258.4,no_change,same,shape6_no_change5,0.109930511,lr,1,1,none
shape3,concave_area2,1,12,same,9,2456.7,572f676f3c27e7000d0b3f9b,ducktruck,control,1367601.6,611a8cbde46ef77ccdf8b0c1,611a9f42a0a7638c0facf99f,Chrome,92,610,1275,727,1291,q, -- select an option -- ,,I was tasked with determining if two objects that briefly appeared on the screen were identical or if there were any differences between them. I was instructed to press 'Q' if the objects were the same and 'P' if I detected any differences.,"I think the purpose of the study was to determine how people process differences between options and make split second decisions. I also believe the study may have been studying if ""correct"" decisions that you are confident in affect how you make future decisions.",Everything worked fine.,1398258.4,concave_area2,different,shape3_concave_area2,,,0,1,concave
shape7,no_change2,1,13,same,7,1925.8,572f676f3c27e7000d0b3f9b,ducktruck,control,1367601.6,611a8cbde46ef77ccdf8b0c1,611a9f42a0a7638c0facf99f,Chrome,92,610,1275,727,1291,q, -- select an option -- ,,I was tasked with determining if two objects that briefly appeared on the screen were identical or if there were any differences between them. I was instructed to press 'Q' if the objects were the same and 'P' if I detected any differences.,"I think the purpose of the study was to determine how people process differences between options and make split second decisions. I also believe the study may have been studying if ""correct"" decisions that you are confident in affect how you make future decisions.",Everything worked fine.,1398258.4,no_change,same,shape7_no_change2,0.548394241,lr,1,1,none
shape4,no_change6,1,14,same,9,1620.4,572f676f3c27e7000d0b3f9b,ducktruck,control,1367601.6,611a8cbde46ef77ccdf8b0c1,611a9f42a0a7638c0facf99f,Chrome,92,610,1275,727,1291,q, -- select an option -- ,,I was tasked with determining if two objects that briefly appeared on the screen were identical or if there were any differences between them. I was instructed to press 'Q' if the objects were the same and 'P' if I detected any differences.,"I think the purpose of the study was to determine how people process differences between options and make split second decisions. I also believe the study may have been studying if ""correct"" decisions that you are confident in affect how you make future decisions.",Everything worked fine.,1398258.4,no_change,same,shape4_no_change6,0.17584748100000003,lr,1,1,none
shape1,no_change2,1,15,same,8,1476.9,572f676f3c27e7000d0b3f9b,ducktruck,control,1367601.6,611a8cbde46ef77ccdf8b0c1,611a9f42a0a7638c0facf99f,Chrome,92,610,1275,727,1291,q, -- select an option -- ,,I was tasked with determining if two objects that briefly appeared on the screen were identical or if there were any differences between them. I was instructed to press 'Q' if the objects were the same and 'P' if I detected any differences.,"I think the purpose of the study was to determine how people process differences between options and make split second decisions. I also believe the study may have been studying if ""correct"" decisions that you are confident in affect how you make future decisions.",Everything worked fine.,1398258.4,no_change,same,shape1_no_change2,0.14964697300000002,lr,1,1,none
shape8,concave_area1,1,16,same,7,1854.8,572f676f3c27e7000d0b3f9b,ducktruck,control,1367601.6,611a8cbde46ef77ccdf8b0c1,611a9f42a0a7638c0facf99f,Chrome,92,610,1275,727,1291,q, -- select an option -- ,,I was tasked with determining if two objects that briefly appeared on the screen were identical or if there were any differences between them. I was instructed to press 'Q' if the objects were the same and 'P' if I detected any differences.,"I think the purpose of the study was to determine how people process differences between options and make split second decisions. I also believe the study may have been studying if ""correct"" decisions that you are confident in affect how you make future decisions.",Everything worked fine.,1398258.4,concave_area1,different,shape8_concave_area1,,,0,1,concave
catch_shape,change5,1,17,different,9,1899.7,572f676f3c27e7000d0b3f9b,ducktruck,control,1367601.6,611a8cbde46ef77ccdf8b0c1,611a9f42a0a7638c0facf99f,Chrome,92,610,1275,727,1291,q, -- select an option -- ,,I was tasked with determining if two objects that briefly appeared on the screen were identical or if there were any differences between them. I was instructed to press 'Q' if the objects were the same and 'P' if I detected any differences.,"I think the purpose of the study was to determine how people process differences between options and make split second decisions. I also believe the study may have been studying if ""correct"" decisions that you are confident in affect how you make future decisions.",Everything worked fine.,1398258.4,change5,different,catch_shape_change5,0.224357715,rl,1,1,none
shape4,no_change1,2,18,same,6,2071.2,572f676f3c27e7000d0b3f9b,ducktruck,control,1367601.6,611a8cbde46ef77ccdf8b0c1,611a9f42a0a7638c0facf99f,Chrome,92,610,1275,727,1291,q, -- select an option -- ,,I was tasked with determining if two objects that briefly appeared on the screen were identical or if there were any differences between them. I was instructed to press 'Q' if the objects were the same and 'P' if I detected any differences.,"I think the purpose of the study was to determine how people process differences between options and make split second decisions. I also believe the study may have been studying if ""correct"" decisions that you are confident in affect how you make future decisions.",Everything worked fine.,1398258.4,no_change,same,shape4_no_change1,0.088270385,rl,1,1,none
shape3,no_change5,2,19,same,8,2294.9,572f676f3c27e7000d0b3f9b,ducktruck,control,1367601.6,611a8cbde46ef77ccdf8b0c1,611a9f42a0a7638c0facf99f,Chrome,92,610,1275,727,1291,q, -- select an option -- ,,I was tasked with determining if two objects that briefly appeared on the screen were identical or if there were any differences between them. I was instructed to press 'Q' if the objects were the same and 'P' if I detected any differences.,"I think the purpose of the study was to determine how people process differences between options and make split second decisions. I also believe the study may have been studying if ""correct"" decisions that you are confident in affect how you make future decisions.",Everything worked fine.,1398258.4,no_change,same,shape3_no_change5,0.343132045,rl,1,1,none
shape2,no_change1,2,20,different,2,2793.8,572f676f3c27e7000d0b3f9b,ducktruck,control,1367601.6,611a8cbde46ef77ccdf8b0c1,611a9f42a0a7638c0facf99f,Chrome,92,610,1275,727,1291,q, -- select an option -- ,,I was tasked with determining if two objects that briefly appeared on the screen were identical or if there were any differences between them. I was instructed to press 'Q' if the objects were the same and 'P' if I detected any differences.,"I think the purpose of the study was to determine how people process differences between options and make split second decisions. I also believe the study may have been studying if ""correct"" decisions that you are confident in affect how you make future decisions.",Everything worked fine.,1398258.4,no_change,same,shape2_no_change1,0.230009402,rl,0,1,none
catch_shape,change1,2,21,different,9,1975.8,572f676f3c27e7000d0b3f9b,ducktruck,control,1367601.6,611a8cbde46ef77ccdf8b0c1,611a9f42a0a7638c0facf99f,Chrome,92,610,1275,727,1291,q, -- select an option -- ,,I was tasked with determining if two objects that briefly appeared on the screen were identical or if there were any differences between them. I was instructed to press 'Q' if the objects were the same and 'P' if I detected any differences.,"I think the purpose of the study was to determine how people process differences between options and make split second decisions. I also believe the study may have been studying if ""correct"" decisions that you are confident in affect how you make future decisions.",Everything worked fine.,1398258.4,change1,different,catch_shape_change1,0.28546034600000003,lr,1,1,none
shape5,no_change5,2,22,same,9,1925.4,572f676f3c27e7000d0b3f9b,ducktruck,control,1367601.6,611a8cbde46ef77ccdf8b0c1,611a9f42a0a7638c0facf99f,Chrome,92,610,1275,727,1291,q, -- select an option -- ,,I was tasked with determining if two objects that briefly appeared on the screen were identical or if there were any differences between them. I was instructed to press 'Q' if the objects were the same and 'P' if I detected any differences.,"I think the purpose of the study was to determine how people process differences between options and make split second decisions. I also believe the study may have been studying if ""correct"" decisions that you are confident in affect how you make future decisions.",Everything worked fine.,1398258.4,no_change,same,shape5_no_change5,0.56268488,rl,1,1,none
shape8,no_change3,2,23,same,9,1615.5,572f676f3c27e7000d0b3f9b,ducktruck,control,1367601.6,611a8cbde46ef77ccdf8b0c1,611a9f42a0a7638c0facf99f,Chrome,92,610,1275,727,1291,q, -- select an option -- ,,I was tasked with determining if two objects that briefly appeared on the screen were identical or if there were any differences between them. I was instructed to press 'Q' if the objects were the same and 'P' if I detected any differences.,"I think the purpose of the study was to determine how people process differences between options and make split second decisions. I also believe the study may have been studying if ""correct"" decisions that you are confident in affect how you make future decisions.",Everything worked fine.,1398258.4,no_change,same,shape8_no_change3,0.848020062,rl,1,1,none
shape6,no_change3,2,24,same,9,2067.4,572f676f3c27e7000d0b3f9b,ducktruck,control,1367601.6,611a8cbde46ef77ccdf8b0c1,611a9f42a0a7638c0facf99f,Chrome,92,610,1275,727,1291,q, -- select an option -- ,,I was tasked with determining if two objects that briefly appeared on the screen were identical or if there were any differences between them. I was instructed to press 'Q' if the objects were the same and 'P' if I detected any differences.,"I think the purpose of the study was to determine how people process differences between options and make split second decisions. I also believe the study may have been studying if ""correct"" decisions that you are confident in affect how you make future decisions.",Everything worked fine.,1398258.4,no_change,same,shape6_no_change3,0.472023106,rl,1,1,none
shape7,no_change3,2,25,same,8,2119.0,572f676f3c27e7000d0b3f9b,ducktruck,control,1367601.6,611a8cbde46ef77ccdf8b0c1,611a9f42a0a7638c0facf99f,Chrome,92,610,1275,727,1291,q, -- select an option -- ,,I was tasked with determining if two objects that briefly appeared on the screen were identical or if there were any differences between them. I was instructed to press 'Q' if the objects were the same and 'P' if I detected any differences.,"I think the purpose of the study was to determine how people process differences between options and make split second decisions. I also believe the study may have been studying if ""correct"" decisions that you are confident in affect how you make future decisions.",Everything worked fine.,1398258.4,no_change,same,shape7_no_change3,0.306079767,lr,1,1,none
shape1,convex_area2,2,26,different,7,2709.6,572f676f3c27e7000d0b3f9b,ducktruck,control,1367601.6,611a8cbde46ef77ccdf8b0c1,611a9f42a0a7638c0facf99f,Chrome,92,610,1275,727,1291,q, -- select an option -- ,,I was tasked with determining if two objects that briefly appeared on the screen were identical or if there were any differences between them. I was instructed to press 'Q' if the objects were the same and 'P' if I detected any differences.,"I think the purpose of the study was to determine how people process differences between options and make split second decisions. I also believe the study may have been studying if ""correct"" decisions that you are confident in affect how you make future decisions.",Everything worked fine.,1398258.4,convex_area2,different,shape1_convex_area2,,,1,1,convex
shape5,convex_area2,3,27,same,5,3282.1,572f676f3c27e7000d0b3f9b,ducktruck,control,1367601.6,611a8cbde46ef77ccdf8b0c1,611a9f42a0a7638c0facf99f,Chrome,92,610,1275,727,1291,q, -- select an option -- ,,I was tasked with determining if two objects that briefly appeared on the screen were identical or if there were any differences between them. I was instructed to press 'Q' if the objects were the same and 'P' if I detected any differences.,"I think the purpose of the study was to determine how people process differences between options and make split second decisions. I also believe the study may have been studying if ""correct"" decisions that you are confident in affect how you make future decisions.",Everything worked fine.,1398258.4,convex_area2,different,shape5_convex_area2,,,0,1,convex
